Ticks,Tics,TicDelta,Ax-1,Ay-1,Az-1,Ax,Ay,Az,Distance,DistanceDelta,Ax-avg,Ay-avg,Az-avg,DistanceDelta-avg,Ax-avgN,Ay-avgN,Az-avgN,A-mag,DistanceDelta-1
821972,0,200,0,0,0,-1.991697,-1.103785,0.4874237,0.964024,0.964024,-1.3221977,-0.58803414,0.42920636,0.414336,-1.3221977,-0.58803414,0.42920636,2.328686353,0
822172,200,200,-1.991697,-1.103785,0.4874237,-1.128205,-0.1387057,0.456166,1.24094,0.276916,-1.3221977,-0.58803414,0.42920636,0.414336,0,0,0,1.224815583,0.964024
822372,400,200,-1.128205,-0.1387057,0.456166,-1.622466,0.3223443,-0.407326,1.51785,0.27691,-1.3221977,-0.58803414,0.42920636,0.414336,0,0,0,1.703589223,0.276916
822572,600,200,-1.622466,0.3223443,-0.407326,-1.178999,-1.172161,0.9318682,1.79476,0.27691,-1.2969963,-0.56615382,0.38954824,0.2824512,0.0252014,0.02188032,-0.03965812,1.905879953,0.27691
822772,800,200,-1.178999,-1.172161,0.9318682,-0.6896215,-0.8478633,0.6778999,2.07168,0.27692,-1.3577533,-0.5884249,0.41846156,0.282778,-0.060757,-0.02227108,0.02891332,1.286078638,0.27691
822992,1020,220,-0.6896215,-0.8478633,0.6778999,-1.86569,-0.9943834,0.2891331,2.37628,0.3046,-1.3958487,-0.78652014,0.44014654,0.283386,-0.0380954,-0.19809524,0.02168498,2.133821799,0.27692
823192,1220,200,-1.86569,-0.9943834,0.2891331,-1.43199,-0.2500611,0.6007326,2.65483,0.27855,-1.31555562,-0.74744814,0.4309646,0.283714,0.08029308,0.039072,-0.00918194,1.57289719,0.3046
823393,1421,201,-1.43199,-0.2500611,0.6007326,-1.812943,-0.6681319,-0.2989011,2.93478,0.27995,-1.33782668,-0.82383388,0.51829062,0.28404,-0.02227106,-0.07638574,0.08732602,1.955122611,0.27855
823593,1621,200,-1.812943,-0.6681319,-0.2989011,-0.7775336,-0.976801,0.8859585,3.21333,0.27855,-1.29172168,-0.7931623,0.46007328,0.282728,0.046105,0.03067158,-0.05821734,1.530889009,0.27995
823793,1821,200,-0.7775336,-0.976801,0.8859585,-0.8009768,-1.229792,1.11453,3.49188,0.27855,-1.23897448,-0.77831492,0.43702078,0.282346,0.0527472,0.01484738,-0.0230525,1.842859007,0.27855
824007,2035,214,-0.8009768,-1.229792,1.11453,-1.635165,-0.8410255,-0.001953602,3.78992,0.29804,-1.27472528,-0.80429782,0.45772896,0.281684,-0.0357508,-0.0259829,0.02070818,1.83877467,0.27855
824207,2235,200,-1.635165,-0.8410255,-0.001953602,-1.168254,-0.1758242,0.4854701,4.06656,0.27664,-1.3050061,-0.81015862,0.41221004,0.28158,-0.03028082,-0.0058608,-0.04551892,1.277267699,0.29804
824407,2435,200,-1.168254,-0.1758242,0.4854701,-1.991697,-0.7980464,-0.1953602,4.3432,0.27664,-1.35775334,-0.85802202,0.38915752,0.281198,-0.05274724,-0.0478634,-0.02305252,2.154507044,0.27664
824608,2636,201,-1.991697,-0.7980464,-0.1953602,-0.9289377,-1.006105,0.6583639,4.62123,0.27803,-1.36869354,-0.7958975,0.384859596,0.282174,-0.0109402,0.06212452,-0.004297924,1.519412895,0.27664
824808,2836,200,-0.9289377,-1.006105,0.6583639,-1.064713,-1.469109,0.9992674,4.89787,0.27664,-1.33079364,-0.757411536,0.347350436,0.282558,0.0378999,0.038485964,-0.03750916,2.071335406,0.27803
825027,3055,219,-1.064713,-1.469109,0.9992674,-1.689866,-0.5304029,-0.02344322,5.20079,0.30292,-1.29699644,-0.762881636,0.421978036,0.283218,0.0337972,-0.0054701,0.0746276,1.77130571,0.27664
825227,3255,200,-1.689866,-0.5304029,-0.02344322,-0.9787545,0.01660562,0.2979243,5.47935,0.27856,-1.3630283,-0.707790056,0.442881576,0.283322,-0.06603186,0.05509158,0.02090354,1.023227739,0.30292
825428,3456,201,-0.9787545,0.01660562,0.2979243,-1.822711,-0.8253969,0.1777778,5.75929,0.27994,-1.29367544,-0.554822956,0.570842496,0.283984,0.06935286,0.1529671,0.12796092,2.008770863,0.27856
825628,3656,200,-1.822711,-0.8253969,0.1777778,-1.259097,-0.7306471,0.7628816,6.03784,0.27855,-1.23682564,-0.549352876,0.59936508,0.282732,0.0568498,0.00547008,0.028522584,1.643520239,0.27994
825829,3857,201,-1.259097,-0.7306471,0.7628816,-0.7179487,-0.7042735,1.639072,6.31779,0.27995,-1.21142884,-0.554236882,0.535873016,0.283006,0.0253968,-0.004884006,-0.063492064,1.923020676,0.27855
826042,4070,213,-0.7179487,-0.7042735,1.639072,-1.405617,-0.5030525,0.1191697,6.61445,0.29666,-1.22940184,-0.548376062,0.751746056,0.283004,-0.017973,0.00586082,0.21587304,1.497672323,0.27995
826242,4270,200,-1.405617,-0.5030525,0.1191697,-0.8517705,-0.007814408,-0.01953602,6.89438,0.27993,-1.21689864,-0.594871802,0.756434696,0.283282,0.0125032,-0.04649574,0.00468864,0.852030343,0.29666
826442,4470,200,-0.8517705,-0.007814408,-0.01953602,-1.912576,-0.7960928,1.257143,7.17431,0.27993,-1.25948714,-0.600732602,0.707203896,0.283278,-0.0425885,-0.0058608,-0.0492308,2.423245597,0.27993
826642,4670,200,-1.912576,-0.7960928,1.257143,-1.196581,-0.9631258,0.7863248,7.45425,0.27994,-1.27726494,-0.592136762,0.736507936,0.282172,-0.0177778,0.00859584,0.02930404,1.725608324,0.27993
826842,4870,200,-1.196581,-0.9631258,0.7863248,-0.9308912,-0.7335775,1.392918,7.73418,0.27993,-1.32942604,-0.55501832,0.82324786,0.282172,-0.0521611,0.037118442,0.086739924,1.828910859,0.27994
827050,5078,208,-0.9308912,-0.7335775,1.392918,-1.494506,-0.4600733,0.2656899,8.02531,0.29113,-1.20888884,-0.57982908,0.74412696,0.282172,0.1205372,-0.02481076,-0.0791209,1.586129487,0.27993
827250,5278,200,-1.494506,-0.4600733,0.2656899,-1.112576,0.1777778,0.4141636,8.30524,0.27993,-1.24483524,-0.62769232,0.72341878,0.28245,-0.0359464,-0.04786324,-0.02070818,1.200400679,0.29113
827450,5478,200,-1.112576,0.1777778,0.4141636,-1.30989,-0.9201466,0.8615385,8.58517,0.27993,-1.2715996,-0.70056162,0.60854704,0.28245,-0.02676436,-0.0728693,-0.11487174,1.817891681,0.27993
827651,5679,201,-1.30989,-0.9201466,0.8615385,-1.376313,-1.202442,0.6827839,8.8665,0.28133,-1.2249084,-0.65855918,0.6337485,0.28273,0.0466912,0.04200244,0.02520146,1.950973627,0.27993
827851,5879,200,-1.376313,-1.202442,0.6827839,-1.064713,-1.097924,0.8185593,9.14643,0.27993,-1.3161416,-0.50109888,0.59565326,0.282676,-0.0912332,0.1574603,-0.03809524,1.73467294,0.28133
828060,6088,209,-1.064713,-1.097924,0.8185593,-1.26105,-0.2500611,0.3916972,9.43896,0.29253,-1.2926984,-0.41768006,0.60288158,0.28262,0.0234432,0.08341882,0.00722832,1.343951023,0.27993
828260,6288,200,-1.26105,-0.2500611,0.3916972,-1.568742,0.9650793,0.2236874,9.71862,0.27966,-1.2321366,-0.35848592,0.54525032,0.28228,0.0605618,0.05919414,-0.05763126,1.855361305,0.29253
828460,6488,200,-1.568742,0.9650793,0.2236874,-1.192674,-0.5030525,0.8976801,9.99827,0.27965,-1.3886202,-0.32683764,0.52649572,0.282234,-0.1564836,0.03164828,-0.0187546,1.575234157,0.27966
828660,6688,200,-1.192674,-0.5030525,0.8976801,-1.073504,-0.9064713,0.3946276,10.2779,0.27963,-1.3843222,-0.32820516,0.55365078,0.282608,0.004298,-0.00136752,0.02715506,1.459394394,0.27965
828860,6888,200,-1.073504,-0.9064713,0.3946276,-1.847131,-0.9396826,0.7247863,10.5576,0.2797,-1.3991696,-0.40322346,0.62632478,0.314496,-0.0148474,-0.0750183,0.072674,2.195498007,0.27963
829070,7098,210,-1.847131,-0.9396826,0.7247863,-1.23956,-0.2568987,0.5274725,10.852,0.2944,-1.363028,-0.41592188,0.65269836,0.346826,0.0361416,-0.01269842,0.02637358,1.371398255,0.2797
829270,7298,200,-1.23956,-0.2568987,0.5274725,-1.642979,0.5899878,0.5870574,11.2911,0.4391,-1.3530646,-0.46358982,0.67321118,0.3787,0.0099634,-0.04766794,0.02051282,1.841765997,0.2944
829471,7499,201,-1.642979,0.5899878,0.5870574,-1.011966,-0.5665446,1.029548,11.7324,0.4413,-1.3190718,-0.4460074,0.69665442,0.41058,0.0339928,0.01758242,0.02344324,1.55081174,0.4391
829671,7699,200,-1.011966,-0.5665446,1.029548,-1.023687,-1.144811,0.4971917,12.1714,0.439,-1.3341146,-0.35653242,0.587057356,0.44452,-0.0150428,0.08947498,-0.109597064,1.614226405,0.4413
829871,7899,200,-1.023687,-1.144811,0.4971917,-1.677167,-0.8517705,0.8420025,12.6105,0.4391,-1.4038582,-0.52708188,0.410647096,0.393,-0.0697436,-0.17054946,-0.17641026,2.060914928,0.439
830083,8111,212,-1.677167,-0.8517705,0.8420025,-1.314774,0.1904762,-0.02051282,13.0746,0.4641,-1.35521348,-0.55912094,0.353601956,0.34106,0.04864472,-0.03203906,-0.05704514,1.328658206,0.4391
830283,8311,200,-1.314774,0.1904762,-0.02051282,-1.991697,-0.2627595,-0.2949939,13.2561,0.1815,-1.30520136,-0.61264954,0.372356536,0.28956,0.05001212,-0.0535286,0.01875458,2.030497697,0.4641
830483,8511,200,-1.991697,-0.2627595,-0.2949939,-0.7687424,-0.7267399,0.7443223,13.4377,0.1816,-1.36810736,-0.65347984,0.261391936,0.23804,-0.062906,-0.0408303,-0.1109646,1.293495824,0.1815
830683,8711,200,-0.7687424,-0.7267399,0.7443223,-0.7736264,-1.412454,0.5909646,13.6192,0.1815,-1.32766776,-0.685128194,0.33582418,0.18514,0.0404396,-0.031648354,0.074432244,1.715448416,0.1816
830883,8911,200,-0.7736264,-1.412454,0.5909646,-1.991697,-1.055922,0.2871795,13.8007,0.1815,-1.27863236,-0.772649554,0.27467644,0.18558,0.0490354,-0.08752136,-0.06114774,2.272509686,0.1815
831103,9131,220,-1.991697,-1.055922,0.2871795,-1.112576,0.03223443,0.3516484,14.0003,0.1996,-1.35032948,-0.812503054,0.28210014,0.186,-0.07169712,-0.0398535,0.0074237,1.167270753,0.1815
831304,9332,201,-1.112576,0.03223443,0.3516484,-1.74652,-0.7003663,-0.6007326,14.184,0.1837,-1.3786567,-0.747643454,0.40908422,0.18626,-0.02832722,0.0648596,0.12698408,1.975278391,0.1996
831505,9533,201,-1.74652,-0.7003663,-0.6007326,-1.127228,-0.9260074,0.7814408,14.3677,0.1837,-1.3786567,-0.737680054,0.345006074,0.1865,0,0.0099634,-0.064078146,1.654926703,0.1837
831705,9733,200,-1.127228,-0.9260074,0.7814408,-0.9152625,-1.088156,1.225885,14.5505,0.1828,-1.4271061,-0.72087908,0.336214854,0.18552,-0.0484494,0.016800974,-0.00879122,1.877387269,0.1837
831905,9933,200,-0.9152625,-1.088156,1.225885,-1.991697,-1.006105,-0.03321123,14.7332,0.1827,-1.4689133,-0.69567762,0.390329634,0.18522,-0.0418072,0.02520146,0.05411478,2.231637783,0.1828
832118,10146,213,-1.991697,-1.006105,-0.03321123,-1.354823,0.1162393,0.3076923,14.9279,0.1947,-1.4839561,-0.72166054,0.384859554,0.18492,-0.0150428,-0.02598292,-0.00547008,1.39417771,0.1827
832318,10346,200,-1.354823,0.1162393,0.3076923,-1.955556,-0.574359,-0.3301587,15.1101,0.1822,-1.5681564,-0.71267414,0.425103754,0.18482,-0.0842003,0.0089864,0.0402442,2.06472572,0.1947
832518,10546,200,-1.955556,-0.574359,-0.3301587,-1.202442,-1.055922,0.7540904,15.2923,0.1822,-1.509939,-0.66442018,0.415726464,0.18472,0.0582174,0.04825396,-0.00937729,1.769036564,0.1822
832718,10746,200,-1.202442,-1.055922,0.7540904,-1.336264,-1.043224,1.427106,15.4746,0.1823,-1.5083762,-0.63785118,0.427643444,0.18514,0.0015628,0.026569,0.01191698,2.215975931,0.1822
832918,10946,200,-1.336264,-1.043224,1.427106,-1.70061,-0.7648352,-0.08009768,15.6568,0.1822,-1.4898168,-0.74354098,0.887716784,0.18518,0.0185594,-0.1056898,0.46007334,1.866403733,0.1823
833134,11162,216,-1.70061,-0.7648352,-0.08009768,-1.347009,0.2490843,0.3672772,15.8536,0.1968,-1.4507448,-0.77264958,0.900219824,0.18522,0.039072,-0.0291086,0.01250304,1.418227336,0.1822
833334,11362,200,-1.347009,0.2490843,0.3672772,-1.862759,-1.102808,1.970208,16.036,0.1824,-1.37045172,-0.76620258,0.862320024,0.18542,0.08029308,0.006447,-0.0378998,2.927076381,0.1968
833534,11562,200,-1.862759,-1.102808,1.970208,-1.007082,-1.201465,0.8166056,16.2184,0.1824,-1.31575092,-0.69235642,0.91213688,0.18546,0.0547008,0.07384616,0.049816856,1.767647308,0.1824
833735,11763,201,-1.007082,-1.201465,0.8166056,-0.9347986,-1.010989,1.237607,16.4017,0.1833,-1.30402932,-0.61538452,0.82832735,0.18532,0.0117216,0.0769719,-0.08380953,1.851382799,0.1824
833935,11963,200,-0.9347986,-1.010989,1.237607,-1.427106,-0.3956044,0.1689866,16.5841,0.1824,-1.29250312,-0.48683758,0.69821735,0.18558,0.0115262,0.12854694,-0.13011,1.490533746,0.1833
834150,12178,215,-1.427106,-0.3956044,0.1689866,-1.288401,0.6339438,-0.05177045,16.7802,0.1961,-1.34310132,-0.45597078,0.62886449,0.18584,-0.0505982,0.0308668,-0.06935286,1.436851439,0.1824
834351,12379,201,-1.288401,0.6339438,-0.05177045,-1.805128,-0.4600733,1.319658,16.9639,0.1837,-1.4419536,-0.48859598,0.56302807,0.18572,-0.09885228,-0.0326252,-0.06583642,2.282904241,0.1961
834552,12580,201,-1.805128,-0.4600733,1.319658,-1.260073,-1.047131,0.4698413,17.1476,0.1837,-1.4267156,-0.4880099,0.59623929,0.18598,0.015238,0.00058608,0.03321122,1.704411377,0.1837
834752,12780,200,-1.260073,-1.047131,0.4698413,-1.42906,-1.174115,0.9084249,17.3303,0.1827,-1.4732112,-0.39697206,0.52630034,0.18532,-0.0464956,0.09103784,-0.06993895,2.060581063,0.1837
834953,12981,201,-1.42906,-1.174115,0.9084249,-1.350916,-0.392674,0.3350427,17.514,0.1837,-1.30871796,-0.41943848,0.41748474,0.1851,0.16449324,-0.02246642,-0.1088156,1.446174443,0.1827
835164,13192,211,-1.350916,-0.392674,0.3350427,-1.520879,1.089133,-0.4014652,17.7068,0.1928,-1.24854708,-0.46984128,0.51301588,0.18488,0.06017088,-0.0504028,0.09553114,1.913232325,0.1837
835364,13392,200,-1.520879,1.089133,-0.4014652,-0.9826618,-0.5724054,0.77558,17.8894,0.1826,-1.23682548,-0.40009766,0.45753358,0.18504,0.0117216,0.06974362,-0.0554823,1.37651607,0.1928
835564,13592,200,-0.9826618,-0.5724054,0.77558,-0.9592186,-1.299145,0.947497,18.072,0.1826,-1.22256408,-0.39521366,0.4471795,0.185,0.0142614,0.004884,-0.01035408,1.872332401,0.1826
835765,13793,201,-0.9592186,-1.299145,0.947497,-1.370452,-0.8253969,0.6310134,18.2555,0.1835,-1.16610508,-0.5372405,0.42275948,0.1856,0.056459,-0.14202684,-0.02442002,1.719766449,0.1826
835966,13994,201,-1.370452,-0.8253969,0.6310134,-1.279609,-0.368254,0.2832723,18.439,0.1835,-1.13934074,-0.53704514,0.4442491,0.20384,0.02676434,0.00019536,0.02148962,1.361342498,0.1835
836180,14208,214,-1.279609,-0.368254,0.2832723,-1.238584,0.3789988,-0.5235653,18.6348,0.1958,-1.11433464,-0.57514054,0.45128206,0.2218,0.0250061,-0.0380954,0.00703296,1.397086625,0.1835
836381,14409,201,-1.238584,0.3789988,-0.5235653,-0.8488401,-0.5714286,0.8830281,18.9086,0.2738,-1.15575104,-0.56830292,0.4049817,0.23958,-0.0414164,0.00683762,-0.04630036,1.351591205,0.1958
836581,14609,200,-0.8488401,-0.5714286,0.8830281,-0.8341881,-1.489622,0.9826618,19.181,0.2724,-1.09655696,-0.510476296,0.43018316,0.25734,0.05919408,0.057826624,0.02520146,1.969890277,0.2738
836781,14809,200,-0.8341881,-1.489622,0.9826618,-1.577534,-0.7912088,0.3995116,19.4534,0.2724,-1.17470096,-0.728302916,0.49504274,0.27834,-0.078144,-0.21782662,0.06485958,1.809484569,0.2724
836981,15009,200,-1.577534,-0.7912088,0.3995116,-0.9836386,-0.07912088,0.4092796,19.7257,0.2723,-1.13641036,-0.745689976,0.45616606,0.26722,0.0382906,-0.01738706,-0.03887668,1.068323359,0.2724
837202,15230,221,-0.9836386,-0.07912088,0.4092796,-1.629304,-0.7101343,-0.1992674,20.0265,0.3008,-1.20927974,-0.774212576,0.5354823,0.25618,-0.07286938,-0.0285226,0.07931624,1.788471343,0.2723
837403,15431,201,-1.629304,-0.7101343,-0.1992674,-0.6573871,-0.6583639,0.6886447,20.2447,0.2182,-1.21221014,-0.812307816,0.53235654,0.24536,-0.0029304,-0.03809524,-0.00312576,1.157511273,0.3008
837603,15631,200,-0.6573871,-0.6583639,0.6886447,-1.198535,-1.632235,1.379243,20.4619,0.2172,-1.25714302,-0.7343591,0.48078146,0.23454,-0.04493288,0.077948716,-0.05157508,2.450099691,0.2182
837804,15832,201,-1.198535,-1.632235,1.379243,-1.592186,-0.981685,0.3838828,20.6802,0.2183,-1.23018342,-0.76073274,0.56927964,0.22216,0.0269596,-0.02637364,0.08849818,1.909483622,0.2172
838005,16033,201,-1.592186,-0.981685,0.3838828,-1.208303,0.3106227,0.1514042,20.8984,0.2182,-1.3249332,-0.76307706,0.56967036,0.2224,-0.09474978,-0.00234432,0.00039072,1.25674414,0.2183
838225,16253,220,-1.208303,0.3106227,0.1514042,-1.494506,-0.8420025,0.2432235,21.1373,0.2389,-1.27589776,-0.68766786,0.53606836,0.2226,0.04903544,0.0754092,-0.033602,1.732534001,0.2182
838426,16454,201,-1.494506,-0.8420025,0.2432235,-1.131136,-0.6700855,0.6905983,21.3567,0.2194,-1.23877916,-0.69704506,0.51750914,0.22258,0.0371186,-0.0093772,-0.01855922,1.485062032,0.2389
838626,16654,200,-1.131136,-0.6700855,0.6905983,-0.9533578,-1.255189,1.211233,21.5749,0.2182,-1.22061056,-0.81406582,0.54837604,0.2226,0.0181686,-0.11702076,0.0308669,1.98783196,0.2194
838826,16854,200,-0.9533578,-1.255189,1.211233,-1.406593,-1.028571,0.2910867,21.7931,0.2182,-1.20263736,-0.77108656,0.43623928,0.22262,0.0179732,0.04297926,-0.11213676,1.766690023,0.2182
839026,17054,200,-1.406593,-1.028571,0.2910867,-1.11746,-0.2744811,0.3057387,22.0114,0.2183,-1.22158716,-0.81543334,0.45655674,0.22242,-0.0189498,-0.04434678,0.02031746,1.190601898,0.2182
839245,17273,219,-1.11746,-0.2744811,0.3057387,-1.40464,-0.6271062,-0.3174603,22.2504,0.239,-1.2923076,-0.82695974,0.44561654,0.22248,-0.07072044,-0.0115264,-0.0109402,1.570686715,0.2183
839445,17473,200,-1.40464,-0.6271062,-0.3174603,-1.225885,-0.8918194,0.7921856,22.4688,0.2184,-1.275702,-0.81015886,0.44170934,0.22274,0.0166056,0.01680088,-0.0039072,1.710465989,0.239
839645,17673,200,-1.225885,-0.8918194,0.7921856,-1.30696,-1.312821,1.156532,22.6873,0.2185,-1.2866422,-0.758974484,0.43194134,0.223,-0.0109402,0.051184376,-0.009768,2.183852029,0.2184
839846,17874,201,-1.30696,-1.312821,1.156532,-1.323565,-0.9445666,0.2715507,22.9068,0.2195,-1.3136018,-0.799804764,0.63980458,0.22216,-0.0269596,-0.04083028,0.20786324,1.64856609,0.2185
840047,18075,201,-1.323565,-0.9445666,0.2715507,-1.172161,-0.01855922,0.2568987,23.1264,0.2196,-1.2899632,-0.768742464,0.6190964,0.2223,0.0236386,0.0310623,-0.02070818,1.200126159,0.2195
840262,18290,215,-1.172161,-0.01855922,0.2568987,-1.539438,-0.8312576,0.7218559,23.3612,0.2348,-1.2122098,-0.761904864,0.6964592,0.22242,0.0777534,0.0068376,0.0773628,1.89259993,0.2196
840462,18490,200,-1.539438,-0.8312576,0.7218559,-1.107692,-0.7365079,0.6886447,23.5803,0.2191,-1.2186568,-0.685323664,0.654456752,0.22256,-0.006447,0.0765812,-0.042002448,1.497884167,0.2348
840662,18690,200,-1.107692,-0.7365079,0.6886447,-0.918193,-1.278633,1.543346,23.7994,0.2191,-1.14383388,-0.674969574,0.650744892,0.22246,0.07482292,0.01035409,-0.00371186,2.204517546,0.2191
840863,18891,201,-0.918193,-1.278633,1.543346,-1.3558,-0.5616606,0.06153846,24.0196,0.2202,-1.18017088,-0.660317574,0.633357832,0.22262,-0.036337,0.014652,-0.01738706,1.468823765,0.2191
841063,19091,200,-1.3558,-0.5616606,0.06153846,-0.7980464,0.03321123,0.2383394,24.2387,0.2191,-1.21279608,-0.724200394,0.648009852,0.2232,-0.0326252,-0.06388282,0.01465202,0.833538669,0.2202
841278,19306,215,-0.7980464,0.03321123,0.2383394,-1.721123,-0.7579976,0.6349206,24.4743,0.2356,-1.1817338,-0.675164794,0.624175852,0.22356,0.03106228,0.0490356,-0.023834,1.984930455,0.2191
841479,19507,201,-1.721123,-0.7579976,0.6349206,-1.270818,-1.055922,0.7619048,24.6963,0.222,-1.1821244,-0.658754534,0.612649601,0.2237,-0.0003906,0.01641026,-0.011526251,1.819463818,0.2356
841679,19707,200,-1.270818,-1.055922,0.7619048,-0.7628816,-1.033455,1.424176,24.9172,0.2209,-1.26905972,-0.667936462,0.569670365,0.22406,-0.08693532,-0.009181928,-0.042979236,1.917888123,0.222
841879,19907,200,-0.7628816,-1.033455,1.424176,-1.357753,-0.4796093,0.003907204,25.1381,0.2209,-1.13836392,-0.621636082,0.604639845,0.22906,0.1306958,0.04630038,0.03496948,1.439976929,0.2209
842079,20107,200,-1.357753,-0.4796093,0.003907204,-1.232723,-0.01269841,0.02344322,25.359,0.2209,-1.10866912,-0.710915682,0.539194165,0.22962,0.0296948,-0.0892796,-0.06544568,1.233011285,0.2209
842315,20343,236,-1.232723,-0.01269841,0.02344322,-1.067644,-0.5264957,0.809768,25.6196,0.2606,-1.3214164,-0.710329682,0.425299145,0.23062,-0.21274728,0.000586,-0.11389502,1.439717211,0.2209
842515,20543,200,-1.067644,-0.5264957,0.809768,-1.122344,-1.50232,0.4346764,25.8444,0.2248,-1.3179,-0.676141642,0.471404144,0.2314,0.0035164,0.03418804,0.046104999,1.924984418,0.2606
842716,20744,201,-1.122344,-1.50232,0.4346764,-1.826618,-1.030525,0.8547009,26.0703,0.2259,-1.3552138,-0.56576312,0.4868376,0.23218,-0.0373138,0.110378522,0.015433456,2.264735906,0.2248
842916,20944,200,-1.826618,-1.030525,0.8547009,-1.340171,-0.3086691,0.2344322,26.2951,0.2248,-1.4712576,-0.61753358,0.51848596,0.22928,-0.1160438,-0.05177046,0.03164836,1.39509619,0.2259
843116,21144,200,-1.340171,-0.3086691,0.2344322,-1.419292,0.5391942,0.1006105,26.5199,0.2248,-1.42652018,-0.57494498,0.57103786,0.22946,0.04473742,0.0425886,0.0525519,1.52159214,0.2248
843335,21363,219,-1.419292,0.5391942,0.1006105,-1.647863,-0.785348,0.9680098,26.766,0.2461,-1.45875458,-0.55599504,0.55189256,0.22942,-0.0322344,0.01894994,-0.0191453,2.066220443,0.2248
843535,21563,200,-1.647863,-0.785348,0.9680098,-0.8986569,-1.289377,0.6974359,26.9917,0.2257,-1.49001218,-0.53391934,0.60835166,0.2296,-0.0312576,0.0220757,0.0564591,1.719445872,0.2461
843735,21763,200,-0.8986569,-1.289377,0.6974359,-1.98779,-0.9357753,0.7589744,27.2174,0.2257,-1.51247858,-0.52415134,0.4981685,0.22978,-0.0224664,0.009768,-0.11018316,2.324441145,0.2257
843935,21963,200,-1.98779,-0.9357753,0.7589744,-1.496459,-0.1982906,0.5167277,27.4431,0.2257,-1.44644698,-0.53978016,0.4647619,0.22952,0.0660316,-0.01562882,-0.0334066,1.595530074,0.2257
844135,22163,200,-1.496459,-0.1982906,0.5167277,-1.531624,0.5880342,-0.4503053,27.6688,0.2257,-1.43609288,-0.53645916,0.56654452,0.22974,0.0103541,0.003321,0.10178262,1.701302783,0.2257
844352,22380,217,-1.531624,0.5880342,-0.4503053,-1.317705,-0.8634921,0.8009768,27.9136,0.2448,-1.43687428,-0.6120635,0.48039066,0.22952,-0.0007814,-0.07560434,-0.08615386,1.767350816,0.2257
844554,22582,202,-1.317705,-0.8634921,0.8009768,-0.8468864,-1.272772,1.206349,28.1404,0.2268,-1.42788768,-0.56380953,0.46691082,0.2293,0.0089866,0.04825397,-0.01347984,1.947419587,0.2448
844754,22782,200,-0.8468864,-1.272772,1.206349,-1.991697,-1.313797,0.3282051,28.365,0.2246,-1.41636148,-0.63159951,0.41181926,0.22906,0.0115262,-0.06778998,-0.05509156,2.408451387,0.2268
844954,22982,200,-1.991697,-1.313797,0.3282051,-1.451526,0.04297925,0.4493285,28.5896,0.2246,-1.38178268,-0.67887669,0.4878143,0.2293,0.0345788,-0.04727718,0.07599504,1.520089157,0.2246
845154,23182,200,-1.451526,0.04297925,0.4493285,-1.473993,0.2490843,-0.7257631,28.8141,0.2245,-1.4110867,-0.71208789,0.5972161,0.2296,-0.02930402,-0.0332112,0.1094018,1.661755226,0.2246
845373,23401,219,-1.473993,0.2490843,-0.7257631,-1.144811,-1.099878,1.180952,29.0601,0.246,-1.3907693,-0.62632483,0.52102563,0.22992,0.0203174,0.08576306,-0.07619047,1.978628683,0.2245
845575,23603,202,-1.144811,-1.099878,1.180952,-0.9934065,-1.438828,1.753358,29.2884,0.2283,-1.3071551,-0.62417587,0.52962147,0.23044,0.0836142,0.00214896,0.00859584,2.476155642,0.246
845775,23803,200,-0.9934065,-1.438828,1.753358,-1.89011,-0.8849817,-0.05274725,29.5146,0.2262,-1.4105005,-0.84063497,0.82344319,0.231,-0.1033454,-0.2164591,0.29382172,2.087699857,0.2283
845976,24004,201,-1.89011,-0.8849817,-0.05274725,-1.033455,0.05372405,0.4923077,29.7418,0.2272,-1.4220267,-0.89709397,0.75057391,0.22928,-0.0115262,-0.056459,-0.07286928,1.145985332,0.2262
846177,24205,201,-1.033455,0.05372405,0.4923077,-1.99072,-0.8332112,0.7433455,29.9691,0.2273,-1.36009754,-0.82109877,0.65250311,0.22902,0.06192916,0.0759952,-0.0980708,2.282491962,0.2272
846387,24415,210,-1.99072,-0.8332112,0.7433455,-1.202442,-1.382173,0.8166056,30.2065,0.2374,-1.26202674,-0.73767995,0.6898169,0.22896,0.0980708,0.08341882,0.03731379,2.005770094,0.2273
846588,24616,201,-1.202442,-1.382173,0.8166056,-0.6837607,-1.058852,1.263004,30.4335,0.227,-1.30578754,-0.745689718,0.67594632,0.22892,-0.0437608,-0.008009768,-0.01387058,1.784341715,0.2374
846788,24816,200,-0.6837607,-1.058852,1.263004,-1.399756,-0.4678876,0.1338217,30.6594,0.2259,-1.20869354,-0.677313658,0.82285722,0.22888,0.097094,0.06837606,0.1469109,1.481939241,0.227
846989,25017,201,-1.399756,-0.4678876,0.1338217,-1.252259,0.01367521,0.4229548,30.8864,0.227,-1.20595854,-0.641172058,0.81621498,0.22906,0.002735,0.0361416,-0.00664224,1.321828422,0.2259
847190,25218,201,-1.252259,0.01367521,0.4229548,-1.50525,-0.4913309,1.4779,31.1135,0.2271,-1.2866424,-0.610305198,0.74393166,0.26202,-0.08068386,0.03086686,-0.07228332,2.165957531,0.227
847401,25429,211,-1.50525,-0.4913309,1.4779,-1.188767,-1.201465,0.7833944,31.3518,0.2383,-1.284298,-0.599755758,0.76717954,0.29522,0.0023444,0.01054944,0.02324788,1.862898793,0.2271
847601,25629,200,-1.188767,-1.201465,0.7833944,-1.08718,-0.9045177,0.9015874,31.7436,0.3918,-1.2921124,-0.50051278,0.77069604,0.32856,-0.0078144,0.099242978,0.0035165,1.677191838,0.2383
847801,25829,200,-1.08718,-0.9045177,0.9015874,-1.388034,-0.4151404,0.2500611,32.1355,0.3919,-1.2557754,-0.555409,0.74490844,0.36152,0.036337,-0.05489622,-0.0257876,1.470207635,0.3918
848002,26030,201,-1.388034,-0.4151404,0.2500611,-1.291331,0.5098901,0.4405373,32.5292,0.3937,-1.19579978,-0.49797316,0.70368744,0.40246,0.05997562,0.05743584,-0.041221,1.456570211,0.3919
848202,26230,200,-1.291331,0.5098901,0.4405373,-1.323565,-0.765812,1.348962,32.9211,0.3919,-1.31887658,-0.49074486,0.6679365,0.41474,-0.1230768,0.0072283,-0.03575094,2.039115202,0.3937
848428,26456,226,-1.323565,-0.765812,1.348962,-0.8888889,-0.9142858,0.5772894,33.3641,0.443,-1.28937718,-0.46398052,0.67711842,0.42654,0.0294994,0.02676434,0.00918192,1.399751782,0.3919
848629,26657,201,-0.8888889,-0.9142858,0.5772894,-1.702564,-0.8683762,0.7228327,33.8173,0.4532,-1.35228318,-0.4301832,0.4567521,0.43798,-0.062906,0.03379732,-0.22036632,2.043352273,0.443
848829,26857,200,-1.702564,-0.8683762,0.7228327,-1.240537,-0.2813187,0.2959707,34.2682,0.4509,-1.29601958,-0.42354094,0.31374846,0.44978,0.0562636,0.00664226,-0.14300364,1.306013367,0.4532
849029,27057,200,-1.240537,-0.2813187,0.2959707,-1.605861,0.6788767,-0.6612943,34.7191,0.4509,-1.27687428,-0.44288158,0.40634918,0.46172,0.0191453,-0.01934064,0.09260072,1.864664387,0.4509
849229,27257,200,-1.605861,0.6788767,-0.6612943,-1.042247,-0.7326007,0.6339438,35.17,0.4509,-1.33470088,-0.52122094,0.33133088,0.4617,-0.0578266,-0.07833936,-0.0750183,1.422978333,0.4509
849452,27480,223,-1.042247,-0.7326007,0.6339438,-0.7931624,-1.010989,1.040293,35.6727,0.5027,-1.33489628,-0.458901034,0.35594626,0.4626,-0.0001954,0.062319906,0.02461538,1.65330423,0.4509
849652,27680,200,-0.7931624,-1.010989,1.040293,-1.991697,-1.260073,0.3477412,36.1258,0.4531,-1.34993888,-0.771477334,0.40752136,0.46304,-0.0150426,-0.3125763,0.0515751,2.382344401,0.5027
849853,27881,201,-1.991697,-1.260073,0.3477412,-1.241514,0.03028083,0.4190476,36.5812,0.4554,-1.31965798,-0.801367454,0.45440784,0.46348,0.0302809,-0.02989012,0.04688648,1.310677242,0.4531
850053,28081,200,-1.241514,0.03028083,0.4190476,-1.681074,-0.8840048,-0.4034188,37.0343,0.4531,-1.4097191,-0.822661654,0.49660564,0.46218,-0.09006112,-0.0212942,0.0421978,1.941705696,0.4554
850253,28281,200,-1.681074,-0.8840048,-0.4034188,-0.8908425,-0.8820513,0.8683762,37.4874,0.4531,-1.3114529,-0.762295394,0.4520635,0.46262,0.0982662,0.06036626,-0.04454214,1.525021993,0.4531
850472,28500,219,-0.8908425,-0.8820513,0.8683762,-1.243468,-1.11746,1.251282,37.9836,0.4962,-1.3042245,-0.72361408,0.43819294,0.46262,0.0072284,0.038681314,-0.01387056,2.088213629,0.4531
850672,28700,200,-1.243468,-1.11746,1.251282,-1.500366,-0.9582417,0.1250305,38.4389,0.4553,-1.3153601,-0.725177,0.65152628,0.46306,-0.0111356,-0.00156292,0.21333334,1.784645039,0.4962
850872,28900,200,-1.500366,-0.9582417,0.1250305,-1.205372,0.2236874,0.3496948,38.8943,0.4554,-1.3599022,-0.71208786,0.64273506,0.4635,-0.0445421,0.01308914,-0.00879122,1.274850644,0.4553
851072,29100,200,-1.205372,0.2236874,0.3496948,-1.736752,-0.8918194,0.6632479,39.3496,0.4553,-1.28371166,-0.71013426,0.68161166,0.46262,0.07619054,0.0019536,0.0388766,2.061928012,0.4554
851272,29300,200,-1.736752,-0.8918194,0.6632479,-1.113553,-0.8166056,0.8244201,39.8049,0.4553,-1.24717946,-0.62339434,0.672234376,0.46344,0.0365322,0.08673992,-0.009377284,1.608264124,0.4553
851488,29516,216,-1.113553,-0.8166056,0.8244201,-0.8625153,-1.107692,1.445665,40.2967,0.4918,-1.25655686,-0.661098852,0.610695904,0.46334,-0.0093774,-0.037704512,-0.061538472,2.015157935,0.4553
851690,29718,202,-0.8625153,-1.107692,1.445665,-1.317705,-0.5245421,0.07814408,40.7561,0.4594,-1.21279626,-0.579633632,0.694310124,0.46372,0.0437606,0.08146522,0.08361422,1.42042155,0.4918
851890,29918,200,-1.317705,-0.5245421,0.07814408,-1.252259,0.03516484,0.04200244,41.211,0.4549,-1.21025666,-0.607179432,0.678485924,0.46364,0.0025396,-0.0275458,-0.0158242,1.25345657,0.4594
852091,30119,201,-1.252259,0.03516484,0.04200244,-1.517949,-0.4844933,1.081319,41.6682,0.4572,-1.2583152,-0.535091592,0.538217384,0.46218,-0.04805854,0.07208784,-0.14026854,1.925656694,0.4549
852291,30319,200,-1.517949,-0.4844933,1.081319,-1.100855,-0.9543346,0.7452991,42.1231,0.4549,-1.247375,-0.516337032,0.544078188,0.463,0.0109402,0.01875456,0.005860804,1.636492288,0.4572
852504,30532,213,-1.100855,-0.9543346,0.7452991,-1.102808,-0.7472528,0.7443223,42.6076,0.4845,-1.2313554,-0.48820516,0.49426134,0.4661,0.0160196,0.028131872,-0.049816848,1.525971139,0.4549
852706,30734,202,-1.102808,-0.7472528,0.7443223,-1.263004,-0.4307693,0.1074481,43.0711,0.4635,-1.1344566,-0.5120391,0.45401708,0.46646,0.0968988,-0.02383394,-0.04024426,1.338763007,0.4845
852911,30939,205,-1.263004,-0.4307693,0.1074481,-1.172161,0.1758242,-0.2070818,43.5415,0.4704,-1.1772404,-0.46671552,0.37118436,0.46728,-0.0427838,0.04532358,-0.08283272,1.203228337,0.4635
853111,31139,200,-1.172161,0.1758242,-0.2070818,-1.033455,-0.603663,0.8800977,44.0005,0.459,-1.1819292,-0.47824178,0.38017094,0.46216,-0.0046888,-0.01152626,0.00898658,1.485600961,0.4704
853311,31339,200,-1.033455,-0.603663,0.8800977,-1.314774,-0.7277167,0.3311355,44.4595,0.459,-1.1832966,-0.46691088,0.38192918,0.46108,-0.0013674,0.0113309,0.00175824,1.538782956,0.459
853511,31539,200,-1.314774,-0.7277167,0.3311355,-1.126252,-0.8048841,0.7892552,44.9184,0.4589,-1.254017,-0.3254701,0.3498901,0.45816,-0.0707204,0.14144078,-0.03203908,1.593488548,0.459
853712,31740,201,-1.126252,-0.8048841,0.7892552,-1.269841,-0.3741148,0.1162393,45.3765,0.4581,-1.22686202,-0.33445668,0.28874236,0.4575,0.02715498,-0.00898658,-0.06114774,1.328897898,0.4589
853912,31940,200,-1.269841,-0.3741148,0.1162393,-1.525763,0.8830281,-0.3672772,45.8323,0.4558,-1.17763122,-0.40771674,0.28600732,0.45732,0.0492308,-0.07326006,-0.00273504,1.800717607,0.4581
854112,32140,200,-1.525763,0.8830281,-0.3672772,-0.8976801,-0.6485959,0.574359,46.288,0.4557,-1.27003642,-0.47179492,0.31882784,0.46218,-0.0924052,-0.06407818,0.03282052,1.247555395,0.4558
854313,32341,201,-0.8976801,-0.6485959,0.574359,-1.06862,-1.094017,0.3174603,46.7461,0.4581,-1.29504262,-0.47413924,0.36688646,0.46252,-0.0250062,-0.00234432,0.04805862,1.561922835,0.4557
854525,32553,212,-1.06862,-1.094017,0.3174603,-1.588278,-1.125275,0.9533578,47.2293,0.4832,-1.25772882,-0.52512826,0.49641028,0.46244,0.0373138,-0.05098902,0.12952382,2.167432104,0.4581
854727,32755,202,-1.588278,-1.125275,0.9533578,-1.394872,-0.3858364,0.3565324,47.6891,0.4598,-1.2919168,-0.54036634,0.5542369,0.46236,-0.03418798,-0.01523808,0.05782662,1.490521042,0.4832
854927,32955,200,-1.394872,-0.3858364,0.3565324,-1.339194,0.628083,0.2803419,48.1445,0.4554,-1.26749682,-0.59467654,0.5999512,0.46182,0.02441998,-0.0543102,0.0457143,1.50549673,0.4598
855127,33155,200,-1.339194,0.628083,0.2803419,-1.06862,-0.7247863,0.8634921,48.5998,0.4553,-1.29347982,-0.52337002,0.47062274,0.4617,-0.025983,0.07130652,-0.12932846,1.55334558,0.4554
855327,33355,200,-1.06862,-0.7247863,0.8634921,-0.9465201,-1.365568,0.5460318,49.0552,0.4554,-1.28058602,-0.49094022,0.45030528,0.46072,0.0128938,0.0324298,-0.02031746,1.748950253,0.4553
855539,33567,212,-0.9465201,-1.365568,0.5460318,-1.718193,-0.7687424,0.3067155,49.5378,0.4826,-1.32122102,-0.51340664,0.34676438,0.46108,-0.040635,-0.02246642,-0.1035409,1.9071514,0.4554
855739,33767,200,-1.718193,-0.7687424,0.3067155,-1.330403,-0.2236874,0.2549451,49.9927,0.4549,-1.28664232,-0.47218564,0.31101346,0.461,0.0345787,0.041221,-0.03575092,1.372954915,0.4826
855940,33968,201,-1.330403,-0.2236874,0.2549451,-1.542369,0.5157509,-0.2373626,50.4499,0.4572,-1.22568996,-0.55482304,0.3559463,0.4609,0.06095236,-0.0826374,0.04493284,1.643545596,0.4549
856140,34168,200,-1.542369,0.5157509,-0.2373626,-0.8957265,-0.5186813,0.6847375,50.9048,0.4549,-1.19619056,-0.61089136,0.38466426,0.4627,0.0294994,-0.05606832,0.02871796,1.241056686,0.4572
856340,34368,200,-0.8957265,-0.5186813,0.6847375,-0.6417583,-1.778755,0.770696,51.3597,0.4549,-1.15457876,-0.62554338,0.38075704,0.47762,0.0416118,-0.01465202,-0.00390722,2.042007686,0.4549
856556,34584,216,-0.6417583,-1.778755,0.770696,-1.570696,-1.049084,0.4503053,51.8513,0.4916,-1.11609276,-0.65719172,0.33562882,0.49156,0.038486,-0.03164834,-0.04512822,1.941761578,0.4549
856757,34785,201,-1.570696,-1.049084,0.4503053,-1.122344,-0.2969475,0.235409,52.3808,0.5295,-1.14715506,-0.72439564,0.34989012,0.50596,-0.0310623,-0.06720392,0.0142613,1.184589072,0.4916
856957,34985,200,-1.122344,-0.2969475,0.235409,-1.349939,0.3575092,-0.4630037,52.9077,0.5269,-1.129768,-0.5405616,0.33699634,0.52036,0.01738706,0.18383404,-0.01289378,1.471230967,0.5295
857157,35185,200,-1.349939,0.3575092,-0.4630037,-1.051038,-0.8547009,0.756044,53.4346,0.5269,-1.1211722,-0.5557998,0.32918192,0.53426,0.0085958,-0.0152382,-0.00781442,1.551385521,0.5269
857357,35385,200,-1.051038,-0.8547009,0.756044,-0.554823,-0.8595848,0.7062271,53.9615,0.5269,-1.1153114,-0.55072044,0.33015872,0.53332,0.0058608,0.00507936,0.0009768,1.243169862,0.5269
857570,35598,213,-0.554823,-0.8595848,0.7062271,-1.527717,-1.125275,0.4112332,54.5226,0.5611,-1.0772162,-0.51653242,0.35477412,0.5329,0.0380952,0.03418802,0.0246154,1.941462285,0.5269
857770,35798,200,-1.527717,-1.125275,0.4112332,-1.09304,-0.2715507,0.240293,55.0474,0.5248,-1.05181936,-0.50910872,0.33934066,0.53248,0.02539684,0.0074237,-0.01543346,1.151614931,0.5611
857970,35998,200,-1.09304,-0.2715507,0.240293,-1.159463,0.5284493,-0.3399267,55.5722,0.5248,-1.08620274,-0.59330896,0.32253968,0.53208,-0.03438338,-0.08420024,-0.01680098,1.318773397,0.5248
858170,36198,200,-1.159463,0.5284493,-0.3399267,-0.9240538,-0.8175824,0.6788767,56.097,0.5248,-1.06139194,-0.58783876,0.29538462,0.53532,0.0248108,0.0054702,-0.02715506,1.408257782,0.5248
858370,36398,200,-0.9240538,-0.8175824,0.6788767,-0.7267399,-1.280586,0.6222222,56.6219,0.5249,-1.09206354,-0.59799748,0.30769232,0.53626,-0.0306716,-0.01015872,0.0123077,1.598503003,0.5248
858590,36618,220,-0.7267399,-1.280586,0.6222222,-1.403663,-1.097924,0.2754579,57.1992,0.5773,-1.14461534,-0.73299136,0.31296704,0.53616,-0.0525518,-0.13499388,0.00527472,1.803214902,0.5249
858792,36820,202,-1.403663,-1.097924,0.2754579,-1.246398,-0.3223443,0.3018315,57.7287,0.5295,-1.14949932,-0.70368734,0.23599512,0.53606,-0.00488398,0.02930402,-0.07697192,1.322314666,0.5773
858992,37020,200,-1.246398,-0.3223443,0.3018315,-1.422222,-0.1465201,-0.3135531,58.253,0.5243,-1.17528688,-0.73142854,0.29343102,0.53594,-0.02578756,-0.0277412,0.0574359,1.463727811,0.5295
859192,37220,200,-1.422222,-0.1465201,-0.3135531,-0.9484737,-0.6710623,0.2940171,58.7773,0.5243,-1.23506708,-0.71345554,0.21567766,0.53478,-0.0597802,0.017973,-0.07775336,1.198487808,0.5243
859392,37420,200,-0.9484737,-0.6710623,0.2940171,-0.8556777,-1.419292,0.9094017,59.3016,0.5243,-1.21181928,-0.62358986,0.21470086,0.5352,0.0232478,0.08986568,-0.0009768,1.890392964,0.5243
859610,37638,218,-0.8556777,-1.419292,0.9094017,-1.702564,-1.008059,-0.1133089,59.8731,0.5715,-1.22881568,-0.72341894,0.276043959,0.53614,-0.0169964,-0.09982908,0.061343099,1.981854189,0.5243
859812,37840,202,-1.702564,-1.008059,-0.1133089,-1.130159,0.1269841,0.2969475,60.4047,0.5316,-1.23252754,-0.714237,0.323907199,0.53656,-0.00371186,0.00918194,0.04786324,1.175398717,0.5715
860013,38041,201,-1.130159,0.1269841,0.2969475,-1.507204,-0.6456655,-0.006837607,60.9337,0.529,-1.289768,-0.8285226,0.352820459,0.5375,-0.05724046,-0.1142856,0.02891326,1.639693443,0.5316
860213,38241,200,-1.507204,-0.6456655,-0.006837607,-0.967033,-0.6251526,0.5333333,61.4601,0.5264,-1.185641,-0.73807076,0.445811919,0.53478,0.104127,0.09045184,0.09299146,1.26902049,0.529
860414,38442,201,-0.967033,-0.6251526,0.5333333,-1.14188,-1.99072,1.053968,61.9891,0.529,-1.176459,-0.78652008,0.470427299,0.53374,0.009182,-0.04844932,0.02461538,2.525411768,0.5264
860626,38654,212,-1.14188,-1.99072,1.053968,-1.181929,-0.5557998,0.3516484,62.547,0.5579,-1.06432222,-0.7869108,0.65191692,0.53374,0.11213678,-0.00039072,0.181489621,1.352599784,0.529
860826,38854,200,-1.181929,-0.5557998,0.3516484,-1.084249,-0.1152625,0.4200244,63.0734,0.5264,-1.0707691,-0.88205128,0.68434672,0.53372,-0.00644688,-0.09514048,0.0324298,1.168461311,0.5579
861027,39055,201,-1.084249,-0.1152625,0.4200244,-0.9465201,-0.6476191,0.9006105,63.6024,0.529,-0.94534792,-0.84688648,0.72205132,0.5332,0.12542118,0.0351648,0.0377046,1.458221544,0.5264
861227,39255,200,-0.9465201,-0.6476191,0.9006105,-0.9992674,-1.100855,0.6954823,64.1287,0.5263,-0.90920632,-0.81250308,0.70114776,0.53448,0.0361416,0.0343834,-0.02090356,1.641375246,0.529
861427,39455,200,-0.9992674,-1.100855,0.6954823,-0.5147741,-1.814896,1.242491,64.6551,0.5264,-0.94456652,-0.83516486,0.66832726,0.47284,-0.0353602,-0.02266178,-0.0328205,2.258898791,0.5263
861642,39670,215,-0.5147741,-1.814896,1.242491,-1.001221,-0.3838828,0.2471306,65.2194,0.5643,-0.87247862,-0.81191698,0.65641026,0.4107,0.0720879,0.02324788,-0.011917,1.100401303,0.5264
861842,39870,200,-1.001221,-0.3838828,0.2471306,-1.26105,-0.2285714,0.2559219,65.4376,0.2182,-0.90822954,-0.76737482,0.64175824,0.34908,-0.03575092,0.04454216,-0.01465202,1.306900152,0.5643
862042,40070,200,-1.26105,-0.2285714,0.2559219,-0.5860806,-0.5313797,0.8410255,65.6559,0.2183,-0.98637362,-0.55560442,0.54388276,0.28746,-0.07814408,0.2117704,-0.09787548,1.154633599,0.2182
862242,40270,200,-0.5860806,-0.5313797,0.8410255,-1.178022,-0.8781442,0.6222222,65.8741,0.2182,-0.97211234,-0.54153848,0.55775334,0.22218,0.01426128,0.01406594,0.01387058,1.59562951,0.2183
862442,40470,200,-1.178022,-0.8781442,0.6222222,-0.9054945,-0.756044,0.7531136,66.0924,0.2183,-1.01841274,-0.498949964,0.61225882,0.2918,-0.0463004,0.042588516,0.05450548,1.399536678,0.2182
862660,40688,218,-0.9054945,-0.756044,0.7531136,-0.9299146,-0.3135531,0.3164835,66.3303,0.2379,-1.02974364,-0.491135564,0.5997558,0.3614,-0.0113309,0.0078144,-0.01250302,1.031124879,0.2183
862860,40888,200,-0.9299146,-0.3135531,0.3164835,-1.492552,-0.01562882,0.5284493,66.8966,0.5663,-1.00219784,-0.497191704,0.61557998,0.43102,0.0275458,-0.00605614,0.01582418,1.583418579,0.2379
863060,41088,200,-1.492552,-0.01562882,0.5284493,-0.6427351,-0.4923077,0.7785104,67.4629,0.5663,-1.06647134,-0.520244204,0.58139194,0.50062,-0.0642735,-0.0230525,-0.03418804,1.123189086,0.5663
863260,41288,200,-0.6427351,-0.4923077,0.7785104,-1.040293,-0.9084249,0.7013431,68.0292,0.5663,-1.11140422,-0.552478644,0.58529914,0.57706,-0.04493288,-0.03223444,0.0039072,1.548976265,0.5663
863460,41488,200,-1.040293,-0.9084249,0.7013431,-1.226862,-0.8713065,0.5821734,68.5955,0.5663,-1.10065942,-0.52297926,0.3901343,0.58082,0.0107448,0.029499384,-0.19516484,1.613471801,0.5663
863679,41707,219,-1.226862,-0.8713065,0.5821734,-1.154579,-0.4747253,0.3360195,69.2156,0.6201,-1.13680104,-0.53333336,0.36669108,0.58172,-0.03614162,-0.0103541,-0.02344322,1.292797696,0.5663
863884,41912,205,-1.154579,-0.4747253,0.3360195,-1.438828,0.1318681,-0.4473749,69.8007,0.5851,-1.00122108,-0.68942618,0.38798534,0.58318,0.13557996,-0.15609282,0.02129426,1.512534135,0.6201
864084,42112,200,-1.438828,0.1318681,-0.4473749,-0.8234432,-0.5440782,0.6612943,70.3715,0.5708,-1.03658128,-0.76327228,0.3602442,0.58408,-0.0353602,-0.0738461,-0.02774114,1.188019336,0.5851
864285,42313,201,-0.8234432,-0.5440782,0.6612943,-0.3623932,-1.688889,0.8078144,70.9451,0.5736,-1.05455428,-0.72771672,0.34344324,0.57652,-0.017973,0.03555556,-0.01680096,1.906892496,0.5708
864485,42513,200,-0.3623932,-1.688889,0.8078144,-1.403663,-1.240537,0.4434677,71.5159,0.5708,-1.03462748,-0.83496946,0.36043958,0.57696,0.0199268,-0.10725274,0.01699634,1.925062458,0.5736
864689,42717,204,-1.403663,-1.240537,0.4434677,-1.244444,-0.2969475,0.2520147,72.0982,0.5823,-1.01626362,-0.86818068,0.35926742,0.57684,0.01836386,-0.03321122,-0.00117216,1.303967061,0.5708
864895,42923,206,-1.244444,-0.2969475,0.2520147,-1.339194,-0.4043956,-0.3623932,72.6855,0.5873,-1.108669,-0.84356528,0.28053726,0.57618,-0.09240538,0.0246154,-0.07873016,1.445096953,0.5823
865095,43123,200,-1.339194,-0.4043956,-0.3623932,-0.7316239,-0.7101343,0.6554335,73.2557,0.5702,-1.1360194,-0.83242988,0.26197804,0.57606,-0.0273504,0.0111354,-0.01855922,1.212088003,0.5873
865295,43323,200,-0.7316239,-0.7101343,0.6554335,-0.8244201,-1.565812,0.4141636,73.826,0.5703,-1.1432478,-0.784761992,0.28092796,0.5765,-0.0072284,0.047667888,0.01894992,1.817406726,0.5702
865495,43523,200,-0.8244201,-1.565812,0.4141636,-1.540415,-1.18486,0.3506716,74.3962,0.5702,-1.1575092,-0.821685072,0.3313309,0.57628,-0.0142614,-0.03692308,0.05040294,1.974776484,0.5703
865700,43728,205,-1.540415,-1.18486,0.3506716,-1.280586,-0.05860806,0.3467643,74.9807,0.5845,-1.19833948,-0.847863312,0.33094018,0.57662,-0.04083028,-0.02617824,-0.00039072,1.327998828,0.5702
865905,43933,205,-1.280586,-0.05860806,0.3467643,-1.410501,-0.589011,-0.1103785,75.5669,0.5862,-1.25069606,-0.920928112,0.43741148,0.57752,-0.05235658,-0.0730648,0.1064713,1.532524206,0.5845
866105,44133,200,-1.410501,-0.589011,-0.1103785,-0.9357753,-0.8410255,0.6534799,76.1388,0.5719,-1.21631266,-0.855287012,0.40693528,0.57788,0.0343834,0.0656411,-0.0304762,1.417757131,0.5862
866306,44334,201,-0.9357753,-0.8410255,0.6534799,-1.086203,-1.931136,0.9465201,76.7136,0.5748,-1.17938966,-0.79062278,0.40126984,0.57592,0.036923,0.064664232,-0.00566544,2.409361639,0.5719
866506,44534,200,-1.086203,-1.931136,0.9465201,-1.368498,-0.8566545,0.1982906,77.2856,0.572,-1.16649586,-0.79706966,0.440146518,0.5725,0.0128938,-0.00644688,0.038876678,1.626641592,0.5748
866707,44735,201,-1.368498,-0.8566545,0.1982906,-1.095971,0.2647131,0.3184371,77.8603,0.5747,-1.1623933,-0.8029305,0.450500598,0.57196,0.00410256,-0.00586084,0.01035408,1.171591928,0.572
866907,44935,200,-1.095971,0.2647131,0.3184371,-1.346032,-0.6212454,0.08400489,78.4294,0.5691,-1.1748963,-0.8039073,0.411233218,0.57082,-0.012503,-0.0009768,-0.03926738,1.484858516,0.5747
867107,45135,200,-1.346032,-0.6212454,0.08400489,-0.9152625,-0.8703297,0.7052503,78.9986,0.5692,-1.1831015,-0.79003672,0.405372418,0.57024,-0.0082052,0.01387058,-0.0058608,1.446567391,0.5691
867307,45335,200,-0.9152625,-0.8703297,0.7052503,-1.148718,-1.93602,0.7501832,79.5677,0.5691,-1.1825153,-0.86798544,0.411819318,0.57708,0.0005862,-0.07794872,0.0064469,2.372867741,0.5692
867507,45535,200,-1.148718,-1.93602,0.7501832,-1.409524,-0.7873016,0.1689866,80.1368,0.5691,-1.10515262,-0.88380962,0.5493529,0.57542,0.07736268,-0.01582418,0.137533582,1.623317032,0.5691
867721,45749,214,-1.409524,-0.7873016,0.1689866,-1.09304,-0.1250305,0.3506716,80.7457,0.6089,-1.12918192,-0.89943842,0.56185596,0.57374,-0.0240293,-0.0156288,0.01250306,1.154703269,0.5691
867921,45949,200,-1.09304,-0.1250305,0.3506716,-0.9592186,-0.7003663,0.7716728,81.3065,0.5608,-1.02954822,-0.76483522,0.62339452,0.57264,0.0996337,0.1346032,0.06153856,1.416365838,0.6089
868121,46149,200,-0.9592186,-0.7003663,0.7716728,-1.035409,-0.9484737,0.7677656,81.8673,0.5608,-0.94612938,-0.72849822,0.63843726,0.57098,0.08341884,0.036337,0.01504274,1.60035564,0.5608
868322,46350,201,-1.035409,-0.9484737,0.7677656,-0.6505495,-1.263004,1.057876,82.4309,0.5636,-0.98207578,-0.73514048,0.63140428,0.57648,-0.0359464,-0.00664226,-0.00703298,1.771297656,0.5608
868522,46550,200,-0.6505495,-1.263004,1.057876,-0.9924298,-0.6056166,0.2442003,82.9917,0.5608,-0.88009776,-0.69958492,0.6185105,0.57366,0.10197802,0.03555556,-0.01289378,1.187990808,0.5636
868749,46777,227,-0.9924298,-0.6056166,0.2442003,-1.272772,-0.1582418,0.3155067,83.6281,0.6364,-0.90744816,-0.76757038,0.56713076,0.57082,-0.0273504,-0.06798546,-0.05137974,1.3208079,0.5608
868950,46978,201,-1.272772,-0.1582418,0.3155067,-0.4493285,-0.5225885,0.7072039,84.1748,0.5467,-0.93675218,-0.6779,0.50774116,0.56744,-0.02930402,0.08967038,-0.0593896,0.987487821,0.6364
869151,47179,201,-0.4493285,-0.5225885,0.7072039,-1.172161,-1.288401,0.5108669,84.7214,0.5466,-0.94612942,-0.6538707,0.53196582,0.56406,-0.00937724,0.0240293,0.02422466,1.815192424,0.5467
869352,47380,201,-1.172161,-1.288401,0.5108669,-0.7970696,-0.8146521,0.760928,85.2681,0.5467,-0.97035402,-0.5354824,0.51555556,0.54936,-0.0242246,0.1183883,-0.01641026,1.370397538,0.5466
869552,47580,200,-0.7970696,-0.8146521,0.760928,-1.039316,-0.4854701,0.3653236,85.812,0.5439,-0.98891324,-0.52337008,0.4510867,0.54662,-0.01855922,0.01211232,-0.06446886,1.203877194,0.5467
869759,47787,207,-1.039316,-0.4854701,0.3653236,-1.393895,0.4336997,0.2334554,86.3749,0.5629,-0.93557994,-0.51789988,0.47648352,0.54338,0.0533333,0.0054702,0.02539682,1.478357238,0.5439
869960,47988,201,-1.393895,0.4336997,0.2334554,-0.5421246,-0.4620269,0.3848596,86.9079,0.533,-0.9750427,-0.53235652,0.44151404,0.54062,-0.03946276,-0.01445664,-0.03496948,0.809620189,0.5629
870160,48188,200,-0.5421246,-0.4620269,0.3848596,-0.9054945,-1.26105,0.637851,87.4383,0.5304,-1.0072771,-0.50481074,0.43643466,0.53844,-0.0322344,0.02754578,-0.00507938,1.67839843,0.533
870361,48389,201,-0.9054945,-1.26105,0.637851,-0.9943834,-0.8869353,0.5860806,87.9712,0.5329,-0.9947741,-0.54017094,0.404981676,0.53724,0.012503,-0.0353602,-0.031452984,1.455658972,0.5304
870562,48590,201,-0.9943834,-0.8869353,0.5860806,-1.200488,-0.3477412,0.3399267,88.5042,0.533,-1.00200242,-0.52884004,0.437411476,0.5368,-0.00722832,0.0113309,0.0324298,1.295239569,0.5329
870772,48800,210,-1.200488,-0.3477412,0.3399267,-1.33138,0.2568987,0.07619048,89.0611,0.5569,-0.97054944,-0.49015884,0.407130656,0.5369,0.03145298,0.0386812,-0.03028082,1.358077551,0.533
870972,49000,200,-1.33138,0.2568987,0.07619048,-0.5782662,-0.4053724,0.5470086,89.5919,0.5308,-1.05748476,-0.46222234,0.385054956,0.53702,-0.08693532,0.0279365,-0.0220757,0.893273188,0.5569
871172,49200,200,-0.5782662,-0.4053724,0.5470086,-0.7482296,-1.067644,0.4864469,90.1228,0.5309,-0.99125772,-0.404395712,0.402637396,0.5366,0.06622704,0.057826628,0.01758244,1.391525002,0.5308
871373,49401,201,-0.7482296,-1.067644,0.4864469,-1.42906,-0.7472528,0.4757021,90.6563,0.5335,-1.00884012,-0.407521492,0.394236906,0.53724,-0.0175824,-0.00312578,-0.00840049,1.68133629,0.5309
871573,49601,200,-1.42906,-0.7472528,0.4757021,-0.8693528,-0.05860806,0.4278389,91.1872,0.5309,-1.02056172,-0.442881692,0.386813206,0.53746,-0.0117216,-0.0353602,-0.0074237,0.970698367,0.5335
871784,49812,211,-0.8693528,-0.05860806,0.4278389,-1.419292,0.2412698,0.03418803,91.7473,0.5601,-0.96625158,-0.503247892,0.405372426,0.53766,0.05431014,-0.0603662,0.01855922,1.440058929,0.5309
871984,50012,200,-1.419292,0.2412698,0.03418803,-0.6368742,-0.5821734,0.5098901,92.2792,0.5319,-0.95511598,-0.615384732,0.385641046,0.53734,0.0111356,-0.11213684,-0.01973138,1.002258713,0.5601
872184,50212,200,-0.6368742,-0.5821734,0.5098901,-0.4766789,-1.369475,0.579243,92.8111,0.5319,-1.00024422,-0.63687436,0.415335786,0.53808,-0.04512824,-0.021489628,0.02969474,1.561475905,0.5319
872384,50412,200,-0.4766789,-1.369475,0.579243,-1.373382,-1.307937,0.3770452,93.343,0.5319,-0.96644682,-0.75135542,0.3848596,0.5367,0.0337974,-0.11448106,-0.030476186,1.933659845,0.5319
872585,50613,201,-1.373382,-1.307937,0.3770452,-1.094994,-0.1660562,0.5763126,93.8776,0.5346,-0.95394378,-0.81680108,0.4079121,0.53658,0.01250304,-0.06544566,0.0230525,1.24848818,0.5319
872793,50821,208,-1.094994,-0.1660562,0.5763126,-1.250305,-0.3311355,-0.1181929,94.4308,0.5532,-1.04146516,-0.85606848,0.3842735,0.53648,-0.08752138,-0.0392674,-0.0236386,1.298800552,0.5346
872993,51021,200,-1.250305,-0.3311355,-0.1181929,-0.574359,-0.9094017,0.6251526,94.9621,0.5313,-1.02388276,-0.84493288,0.3547741,0.53638,0.0175824,0.0111356,-0.0294994,1.244072139,0.5532
873193,51221,200,-0.574359,-0.9094017,0.6251526,-0.9142858,-1.565812,0.46105,95.4935,0.5314,-1.03755796,-0.86231994,0.33738704,0.53628,-0.0136752,-0.01738706,-0.01738706,1.870896268,0.5313
873393,51421,200,-0.9142858,-1.565812,0.46105,-1.28547,-1.252259,0.2295482,96.0249,0.5314,-1.01040296,-0.99242984,0.37059827,0.53776,0.027155,-0.1301099,0.03321123,1.809220302,0.5314
873594,51622,201,-1.28547,-1.252259,0.2295482,-1.16337,-0.2529915,0.4893773,96.559,0.5341,-1.07526254,-1.0334555,0.37724053,0.53778,-0.06485958,-0.04102566,0.00664226,1.287215832,0.5314
873805,51833,211,-1.16337,-0.2529915,0.4893773,-1.11453,-0.981685,0.04786325,97.1196,0.5606,-1.032674,-1.1186325,0.44542125,0.53776,0.04258854,-0.085177,0.06818072,1.485992413,0.5341
874005,52033,200,-1.11453,-0.981685,0.04786325,-0.8986569,-1.11453,0.6583639,97.651,0.5314,-1.0121612,-1.03365078,0.44620269,0.53776,0.0205128,0.08498172,0.00078144,1.575818635,0.5606
874205,52233,200,-0.8986569,-1.11453,0.6583639,-0.7013431,-1.991697,0.8019536,98.1823,0.5313,-0.97894998,-0.976019512,0.40810745,0.53722,0.03321122,0.057631268,-0.03809524,2.258731649,0.5314
874405,52433,200,-0.7013431,-1.991697,0.8019536,-1.182906,-0.8273504,0.2334554,98.7137,0.5314,-0.94749698,-0.949059792,0.53509158,0.53722,0.031453,0.02695972,0.12698413,1.462284758,0.5313
874605,52633,200,-1.182906,-0.8273504,0.2334554,-0.9973139,0.03516484,0.2989011,99.2451,0.5314,-0.96195364,-0.923272232,0.54661782,0.5372,-0.01445666,0.02578756,0.01152624,1.041735786,0.5314
874816,52844,211,-0.9973139,0.03516484,0.2989011,-0.957265,-0.8468864,0.6827839,99.8057,0.5606,-0.96332116,-0.923272232,0.5862759,0.53734,-0.00136752,0,0.03965808,1.449057179,0.5314
875016,53044,200,-0.957265,-0.8468864,0.6827839,-0.9709402,-0.9855922,0.7159951,100.337,0.5313,-0.9086203,-0.897093972,0.61245418,0.53726,0.05470086,0.02617826,0.02617828,1.557808024,0.5606
875216,53244,200,-0.9709402,-0.9855922,0.7159951,-0.7081807,-1.991697,1.000244,100.869,0.532,-0.91565332,-0.98813182,0.57728934,0.53718,-0.00703302,-0.091037848,-0.03516484,2.338560434,0.5313
875416,53444,200,-0.7081807,-1.991697,1.000244,-0.9094017,-0.6964591,0.3643468,101.4,0.531,-0.91663012,-1.01294258,0.58744806,0.53666,-0.0009768,-0.02481076,0.01015872,1.202004709,0.532
875616,53644,200,-0.9094017,-0.6964591,0.3643468,-1.032479,-0.4200244,0.1230769,101.931,0.531,-0.91702084,-1.01470082,0.59448104,0.5364,-0.00039072,-0.00175824,0.00703298,1.121419326,0.531
875826,53854,210,-1.032479,-0.4200244,0.1230769,-0.962149,-0.9709402,0.7335775,102.489,0.558,-0.9029549,-0.90666662,0.59956044,0.5354,0.01406594,0.1080342,0.0050794,1.551319283,0.531
876027,54055,201,-0.962149,-0.9709402,0.7335775,-0.9728938,-0.9943834,0.75116,103.019,0.53,-0.94144096,-0.87697188,0.58373626,0.5352,-0.03848606,0.02969474,-0.01582418,1.581000328,0.558
876227,54255,200,-0.9728938,-0.9943834,0.75116,-0.637851,-1.451526,1.025641,103.546,0.527,-0.91116006,-0.83575088,0.61811966,0.5344,0.0302809,0.041221,0.0343834,1.888311703,0.53
876428,54456,201,-0.637851,-1.451526,1.025641,-1.101832,-0.5479854,0.2852259,104.076,0.53,-0.84473758,-0.79570204,0.6454701,0.5372,0.06642248,0.04004884,0.02735044,1.263200526,0.527
876628,54656,200,-1.101832,-0.5479854,0.2852259,-0.8810745,-0.2139194,0.2949939,104.603,0.527,-0.8480587,-0.83536016,0.66989012,0.5372,-0.00332112,-0.03965812,0.02442002,0.953454344,0.53
876845,54873,217,-0.8810745,-0.2139194,0.2949939,-0.6300366,-0.770696,0.8703297,105.175,0.572,-0.811331,-0.81191696,0.6646154,0.5378,0.0367277,0.0234432,-0.00527472,1.322267835,0.527
877045,55073,200,-0.6300366,-0.770696,0.8703297,-0.9894994,-1.192674,0.8732601,105.705,0.53,-0.8207082,-0.87521364,0.68512822,0.5378,-0.0093772,-0.06329668,0.02051282,1.778809584,0.572
877245,55273,200,-0.9894994,-1.192674,0.8732601,-0.4542125,-1.33431,0.9992674,106.235,0.53,-0.9010013,-0.838485926,0.72713066,0.5388,-0.0802931,0.036727714,0.04200244,1.727781094,0.53
877445,55473,200,-0.4542125,-1.33431,0.9992674,-1.148718,-0.8644688,0.38779,106.765,0.53,-0.91409044,-0.841611686,0.7210745,0.5374,-0.01308914,-0.00312576,-0.00605616,1.489040105,0.53
877646,55674,201,-1.148718,-0.8644688,0.38779,-1.28254,-0.03028083,0.5050061,107.297,0.532,-0.88341888,-0.851379686,0.66012212,0.5368,0.03067156,-0.009768,-0.06095238,1.378715685,0.53
877859,55887,213,-1.28254,-0.03028083,0.5050061,-0.6954823,-0.7863248,0.8400489,107.862,0.565,-0.92932852,-0.806446886,0.6450794,0.5362,-0.04590964,0.0449328,-0.01504272,1.344501571,0.532
878059,56087,200,-0.6954823,-0.7863248,0.8400489,-0.8361416,-1.241514,0.5684982,108.389,0.527,-0.95257632,-0.766007346,0.62573874,0.5356,-0.0232478,0.04043954,-0.01934066,1.601149584,0.565
878259,56287,200,-0.8361416,-1.241514,0.5684982,-0.6837607,-1.109646,0.9240538,108.916,0.527,-0.90881552,-0.79218562,0.67086694,0.5346,0.0437608,-0.026178274,0.0451282,1.597722869,0.527
878459,56487,200,-0.6837607,-1.109646,0.9240538,-1.264957,-0.6622711,0.2910867,109.443,0.527,-0.9133088,-0.8080098,0.62202688,0.5372,-0.00449328,-0.01582418,-0.04884006,1.457206467,0.527
878659,56687,200,-1.264957,-0.6622711,0.2910867,-1.063736,-0.1611722,0.7306471,109.97,0.527,-0.85802188,-0.9570696,0.6821978,0.5256,0.05528692,-0.1490598,0.06017092,1.300521411,0.527
878878,56906,219,-1.063736,-0.1611722,0.7306471,-0.7179487,-0.8654457,0.5958486,110.548,0.578,-0.88771664,-0.9758242,0.63199022,0.5146,-0.02969476,-0.0187546,-0.05020758,1.272588759,0.527
879078,57106,200,-0.7179487,-0.8654457,0.5958486,-0.559707,-1.986813,0.8693528,111.017,0.469,-0.88478624,-0.98891332,0.65406592,0.5032,0.0029304,-0.01308912,0.0220757,2.239748226,0.578
879279,57307,201,-0.559707,-1.986813,0.8693528,-0.8322345,-1.203419,0.6730159,111.489,0.472,-0.88595844,-0.949255192,0.64722832,0.4918,-0.0011722,0.039658128,-0.0068376,1.610522261,0.469
879479,57507,200,-0.8322345,-1.203419,0.6730159,-1.250305,-0.7277167,0.4014652,111.959,0.47,-0.89435894,-0.965665452,0.65855922,0.4756,-0.0084005,-0.01641026,0.0113309,1.501335571,0.472
879679,57707,200,-1.250305,-0.7277167,0.4014652,-1.069597,0.03711844,0.6964591,112.429,0.47,-0.84942608,-0.942613052,0.66539684,0.4764,0.04493286,0.0230524,0.00683762,1.276898899,0.47
879891,57919,212,-1.069597,0.03711844,0.6964591,-0.7599512,-0.947497,0.6525031,112.926,0.497,-0.85684974,-0.936361452,0.6321856,0.4764,-0.00742366,0.0062516,-0.03321124,1.37878087,0.47
880091,58119,200,-0.7599512,-0.947497,0.6525031,-0.3350427,-1.871551,0.9035409,113.399,0.473,-0.81797314,-0.914481112,0.67282052,0.477,0.0388766,0.02188034,0.04063492,2.105075513,0.497
880291,58319,200,-0.3350427,-1.871551,0.9035409,-0.8693528,-1.172161,0.5069597,113.871,0.472,-0.88009774,-0.85743594,0.517509164,0.4774,-0.0621246,0.057045172,-0.155311356,1.544909006,0.473
880491,58519,200,-0.8693528,-1.172161,0.5069597,-1.055922,-0.618315,0.6046398,114.344,0.473,-0.84063498,-0.81797318,0.480586064,0.4748,0.03946276,0.03946276,-0.0369231,1.364871421,0.472
880691,58719,200,-1.055922,-0.618315,0.6046398,-1.38022,0.3223443,-0.08009768,114.816,0.472,-0.788473814,-0.79765558,0.484102564,0.4734,0.052161166,0.0203176,0.0035165,1.419622744,0.473
880896,58924,205,-1.38022,0.3223443,-0.08009768,-0.5626374,-0.7501832,0.4678876,115.3,0.484,-0.806251594,-0.82813178,0.501684984,0.4716,-0.01777778,-0.0304762,0.01758242,1.047976376,0.472
881097,59125,201,-0.5626374,-0.7501832,0.4678876,-0.07423687,-1.769963,0.9211234,115.766,0.466,-0.806251594,-0.79706952,0.514774124,0.4696,0,0.03106226,0.01308914,1.996684365,0.484
881297,59325,200,-0.07423687,-1.769963,0.9211234,-0.9582417,-1.324542,0.5948718,116.229,0.463,-0.778705794,-0.859389418,0.48957266,0.4682,0.0275458,-0.062319898,-0.025201464,1.739687076,0.466
881497,59525,200,-0.9582417,-1.324542,0.5948718,-1.055922,-0.4630037,0.6700855,116.692,0.463,-0.817191754,-0.929523778,0.54798538,0.4728,-0.03848596,-0.07013436,0.05841272,1.333551002,0.463
881698,59726,201,-1.055922,-0.4630037,0.6700855,-1.242491,0.01074481,-0.206105,117.157,0.465,-0.92463986,-0.863882778,0.49504276,0.4732,-0.107448106,0.065641,-0.05294262,1.259515227,0.463
881917,59945,219,-1.242491,0.01074481,-0.206105,-0.7550672,-1.100855,0.7599512,117.664,0.507,-1.01216132,-0.889279578,0.48859588,0.4742,-0.08752146,-0.0253968,-0.00644688,1.536077483,0.465
882117,60145,200,-0.7550672,-1.100855,0.7599512,-0.6114774,-1.441758,0.6564103,118.132,0.468,-1.02368752,-0.859194098,0.41396828,0.4752,-0.0115262,0.03008548,-0.0746276,1.69807103,0.507
882317,60345,200,-0.6114774,-1.441758,0.6564103,-1.395849,-1.451526,0.5626374,118.6,0.468,-1.03677672,-0.96429788,0.452258878,0.4758,-0.0130892,-0.105103782,0.038290598,2.090904829,0.468
882517,60545,200,-1.395849,-1.451526,0.5626374,-1.113553,-0.3125763,0.2969475,119.068,0.468,-0.99790004,-0.94300356,0.487423698,0.4726,0.03887668,0.02129432,0.03516482,1.194103029,0.468
882717,60745,200,-1.113553,-0.3125763,0.2969475,-1.307937,-0.5147741,-0.01465201,119.536,0.468,-0.99653252,-1.00864456,0.440146518,0.4722,0.00136752,-0.065641,-0.04727718,1.405669325,0.468
882927,60955,210,-1.307937,-0.5147741,-0.01465201,-0.5606838,-0.9943834,0.9357753,120.027,0.491,-1.00063492,-0.96332096,0.375872998,0.4722,-0.0041024,0.0453236,-0.06427352,1.476089456,0.468
883127,61155,200,-0.5606838,-0.9943834,0.9357753,-0.6046398,-1.769963,0.4200244,120.493,0.466,-0.99125772,-0.94847358,0.453821718,0.4718,0.0093772,0.01484738,0.07794872,1.916971258,0.491
883328,61356,201,-0.6046398,-1.769963,0.4200244,-1.416361,-1.224908,0.2412698,120.961,0.468,-0.96507932,-1.03228312,0.49152624,0.4718,0.0261784,-0.08380954,0.037704522,1.888038455,0.466
883528,61556,200,-1.416361,-1.224908,0.2412698,-1.066667,-0.2383394,0.6866911,121.427,0.466,-0.99340654,-1.11824164,0.47765568,0.4732,-0.02832722,-0.08595852,-0.01387056,1.290786127,0.468
883729,61757,201,-1.066667,-0.2383394,0.6866911,-1.177045,-0.9338218,0.1738706,121.895,0.468,-1.01020752,-1.16219784,0.5970208,0.4748,-0.01680098,-0.0439562,0.11936512,1.51251085,0.466
883943,61971,214,-1.177045,-0.9338218,0.1738706,-0.7023199,-1.424176,0.8664225,122.393,0.498,-0.95042732,-1.07096472,0.59135536,0.476,0.0597802,0.09123312,-0.00566544,1.808927436,0.468
884144,62172,201,-0.7023199,-1.424176,0.8664225,-0.6886447,-1.989744,1.01685,122.867,0.474,-0.92542116,-1.04674006,0.55443228,0.4776,0.02500616,0.02422466,-0.03692308,2.338225103,0.498
884345,62373,201,-0.6886447,-1.989744,1.01685,-1.11746,-0.7687424,0.2129426,123.341,0.474,-0.85782656,-1.03599524,0.67047624,0.4794,0.0675946,0.01074482,0.11604396,1.372962592,0.474
884546,62574,201,-1.11746,-0.7687424,0.2129426,-0.9416362,-0.1172161,0.5020757,123.815,0.474,-0.9008058,-1.00141644,0.66188038,0.4744,-0.04297924,0.0345788,-0.00859586,1.073544762,0.474
884748,62776,202,-0.9416362,-0.1172161,0.5020757,-0.839072,-0.8800977,0.7540904,124.292,0.477,-0.88244194,-0.90080584,0.71111118,0.4904,0.01836386,0.1006106,0.0492308,1.430827073,0.474
884948,62976,200,-0.839072,-0.8800977,0.7540904,-0.9172161,-1.251282,0.8234432,124.765,0.473,-0.91018314,-0.86974356,0.71462766,0.5068,-0.0277412,0.03106228,0.00351648,1.756431246,0.477
885148,63176,200,-0.9172161,-1.251282,0.8234432,-0.5968254,-1.486691,1.263004,125.319,0.554,-0.9805129,-0.80586078,0.70739934,0.5226,-0.07032976,0.06388278,-0.00722832,2.040007302,0.473
885349,63377,201,-0.5968254,-1.486691,1.263004,-1.256166,-0.613431,0.230525,125.875,0.556,-0.95628824,-0.84766784,0.7193163,0.538,0.02422466,-0.04180706,0.01191696,1.416824755,0.554
885549,63577,200,-1.256166,-0.613431,0.230525,-1.293285,0.2021978,0.4659341,126.428,0.553,-0.92053732,-0.87990224,0.67360202,0.56,0.03575092,-0.0322344,-0.04571428,1.389447598,0.556
885749,63777,200,-1.293285,0.2021978,0.4659341,-0.7179487,-1.089133,0.8136752,126.982,0.554,-1.04380964,-0.74158724,0.51946276,0.5606,-0.12327232,0.138315,-0.15413926,1.537442148,0.553
885960,63988,211,-0.7179487,-1.089133,0.8136752,-0.7384615,-1.412454,0.5948718,127.565,0.583,-1.00493304,-0.71892546,0.55677656,0.5614,0.0388766,0.02266178,0.0373138,1.701241943,0.554
886160,64188,200,-0.7384615,-1.412454,0.5948718,-1.213187,-0.795116,0.4923077,128.122,0.557,-1.01567784,-0.745299086,0.58822954,0.562,-0.0107448,-0.026373626,0.03145298,1.531796012,0.583
886361,64389,201,-1.213187,-0.795116,0.4923077,-1.061783,-0.5001221,0.417094,128.682,0.56,-1.00649592,-0.695482266,0.598779,0.5632,0.00918192,0.04981682,0.01054946,1.245581253,0.557
886561,64589,200,-1.061783,-0.5001221,0.417094,-1.347009,0.07032967,0.623199,129.238,0.556,-0.92464,-0.741782666,0.60717948,0.5624,0.08185592,-0.0463004,0.00840048,1.485852113,0.56
886762,64790,201,-1.347009,0.07032967,0.623199,-0.6720391,-0.8400489,0.8664225,129.798,0.56,-0.903541,-0.809572666,0.6370696,0.4838,0.021099,-0.06779,0.02989012,1.381306141,0.556
886971,64999,209,-0.6720391,-0.8400489,0.8664225,-0.3291819,-1.643956,0.6368742,130.377,0.579,-0.8924054,-0.809181946,0.6464469,0.4048,0.0111356,0.00039072,0.0093773,1.793477293,0.56
887171,65199,200,-0.3291819,-1.643956,0.6368742,-1.107692,-1.134066,0.6417583,130.541,0.164,-0.9058852,-0.7957021,0.51184373,0.3262,-0.0134798,0.013479846,-0.13460317,1.710245881,0.579
887372,65400,201,-1.107692,-1.134066,0.6417583,-1.006105,-0.4981685,0.4639805,130.706,0.165,-0.92131866,-0.78691088,0.47081809,0.247,-0.01543346,0.00879122,-0.04102564,1.214782709,0.164
887572,65600,200,-1.006105,-0.4981685,0.4639805,-1.414408,0.1377289,-0.04981685,130.869,0.163,-0.97289376,-0.74940168,0.42862029,0.1676,-0.0515751,0.0375092,-0.0421978,1.421970801,0.165
887772,65800,200,-1.414408,0.1377289,-0.04981685,-0.7492064,-0.7960928,0.6612943,131.033,0.164,-1.02485956,-0.76034188,0.37704519,0.179,-0.0519658,-0.0109402,-0.0515751,1.277647889,0.163
887994,66022,222,-0.7492064,-0.7960928,0.6612943,-0.5870574,-1.45641,0.4258852,131.215,0.182,-1.08776556,-0.69958486,0.288937734,0.1904,-0.062906,0.06075702,-0.088107456,1.627004819,0.164
888194,66222,200,-0.5870574,-1.45641,0.4258852,-1.367521,-1.188767,0.3838828,131.436,0.221,-1.01352876,-0.91076924,0.350866924,0.202,0.0742368,-0.21118438,0.06192919,1.852200494,0.182
888394,66422,200,-1.367521,-1.188767,0.3838828,-1.320635,-0.1943834,0.02344322,131.658,0.222,-1.05865696,-0.93577536,0.364542124,0.2138,-0.0451282,-0.02500612,0.0136752,1.335069771,0.221
888594,66622,200,-1.320635,-0.1943834,0.02344322,-1.043224,-0.918193,0.2598291,131.879,0.221,-1.0344323,-1.02017096,0.572405284,0.225,0.02422466,-0.0843956,0.20786316,1.413826673,0.222
888795,66823,201,-1.043224,-0.918193,0.2598291,-0.9748474,-0.9211234,0.7296703,132.102,0.223,-0.9830527,-0.92971914,0.530012124,0.2256,0.0513796,0.09045182,-0.04239316,1.526831529,0.221
889010,67038,215,-0.9748474,-0.9211234,0.7296703,-0.4659341,-1.878388,1.465201,132.34,0.238,-0.9385105,-0.886349176,0.64781432,0.2258,0.0445422,0.043369964,0.117802196,2.427395731,0.223
889211,67239,201,-0.4659341,-1.878388,1.465201,-1.110623,-0.7365079,0.171917,132.564,0.224,-0.92053726,-0.897680056,0.77968244,0.2262,0.01797324,-0.01133088,0.13186812,1.343682548,0.238
889411,67439,200,-1.110623,-0.7365079,0.171917,-1.097924,0.02246642,0.6124542,132.787,0.223,-0.92034188,-0.943003576,0.7411965,0.2266,0.00019538,-0.04532352,-0.03848594,1.257394925,0.224
889611,67639,200,-1.097924,0.02246642,0.6124542,-0.9533578,-0.9748474,0.9191697,133.01,0.223,-1.01626372,-0.752136736,0.60600734,0.2248,-0.09592184,0.19086684,-0.13518916,1.644412201,0.223
889812,67840,201,-0.9533578,-0.9748474,0.9191697,-0.9738705,-1.147741,0.5372406,133.235,0.225,-1.00297912,-0.677118436,0.62495728,0.2246,0.0132846,0.0750183,0.01894994,1.598236721,0.223
890018,68046,206,-0.9738705,-1.147741,0.5372406,-0.9455433,-0.9240538,0.7892552,133.464,0.229,-0.99086692,-0.64996336,0.58647132,0.2248,0.0121122,0.027155076,-0.03848596,1.539756906,0.225
890218,68246,200,-0.9455433,-0.9240538,0.7892552,-1.0442,-0.3614164,0.2666667,133.687,0.223,-0.96273506,-0.60170938,0.54329672,0.225,0.02813186,0.04825398,-0.0431746,1.136699865,0.229
890419,68447,201,-1.0442,-0.3614164,0.2666667,-1.037363,0.1582418,0.4200244,133.911,0.224,-0.98813196,-0.63609278,0.59057388,0.2246,-0.0253969,-0.0343834,0.04727716,1.130302153,0.223
890620,68648,201,-1.037363,0.1582418,0.4200244,-0.8126985,-0.7335775,0.7032967,134.135,0.224,-1.0137241,-0.67536022,0.60483518,0.2254,-0.02559214,-0.03926744,0.0142613,1.30124596,0.224
890820,68848,200,-0.8126985,-0.7335775,0.7032967,-1.100855,-1.319658,0.7736264,134.358,0.223,-1.0774115,-0.70505496,0.6292552,0.2254,-0.0636874,-0.02969474,0.02442002,1.884642347,0.224
891029,69057,209,-1.100855,-1.319658,0.7736264,-1.073504,-1.120391,0.8605617,134.591,0.233,-1.0824909,-0.68161174,0.6503541,0.2252,-0.0050794,0.02344322,0.0210989,1.774331781,0.223
891230,69258,201,-1.073504,-1.120391,0.8605617,-1.362637,-0.5098901,0.3887668,134.814,0.223,-1.08698418,-0.67516486,0.63531136,0.2248,-0.00449328,0.00644688,-0.01504274,1.505957215,0.233
891431,69459,201,-1.362637,-0.5098901,0.3887668,-1.06276,0.2754579,0.5255189,135.037,0.223,-1.03540902,-0.71013446,0.68923088,0.2248,0.05157516,-0.0349696,0.05391952,1.217171305,0.223
891631,69659,200,-1.06276,0.2754579,0.5255189,-0.8351649,-0.7013431,0.628083,135.259,0.222,-1.05396822,-0.69157526,0.605226,0.225,-0.0185592,0.0185592,-0.08400488,1.258519292,0.223
891832,69860,201,-0.8351649,-0.7013431,0.628083,-0.8429792,-1.494506,1.043224,135.482,0.223,-1.04791222,-0.69352886,0.5983884,0.2248,0.006056,-0.0019536,-0.0068376,2.008103192,0.222
892042,70070,210,-0.8429792,-1.494506,1.043224,-1.1663,-1.027595,0.4405373,135.716,0.234,-1.15164842,-0.737484908,0.499731506,0.225,-0.1037362,-0.043956048,-0.098656894,1.615636186,0.223
892242,70270,200,-1.1663,-1.027595,0.4405373,-1.332357,-0.5196581,0.3545788,135.938,0.222,-1.11531142,-0.768156468,0.498950066,0.2252,0.036337,-0.03067156,-0.00078144,1.473412991,0.234
892443,70471,201,-1.332357,-0.5196581,0.3545788,-1.581441,0.05567766,0.03223443,136.162,0.224,-1.03931632,-0.791599668,0.393846166,0.225,0.0759951,-0.0234432,-0.1051039,1.582749095,0.222
892643,70671,200,-1.581441,0.05567766,0.03223443,-0.6534799,-0.8547009,0.6241758,136.385,0.223,-1.05260092,-0.785934148,0.395799766,0.2248,-0.0132846,0.00566552,0.0019536,1.243842851,0.224
892843,70871,200,-0.6534799,-0.8547009,0.6241758,-0.4630037,-1.611722,0.5177045,136.607,0.222,-1.01177052,-0.748229628,0.426080586,0.225,0.0408304,0.03770452,0.03028082,1.755003755,0.223
893052,71080,209,-0.4630037,-1.611722,0.5177045,-1.232723,-0.9992674,0.4503053,136.84,0.233,-0.92503052,-0.753504354,0.39482296,0.225,0.08674,-0.005274726,-0.031257626,1.649519989,0.222
893252,71280,200,-1.232723,-0.9992674,0.4503053,-1.128205,-0.3311355,0.5059829,137.063,0.223,-0.87912086,-0.736898734,0.42393164,0.225,0.04590966,0.01660562,0.02910868,1.280045287,0.233
893452,71480,200,-1.128205,-0.3311355,0.5059829,-1.147741,0.02930403,-0.1240537,137.287,0.224,-0.8886935,-0.702905934,0.4546032,0.2254,-0.00957264,0.0339928,0.03067156,1.15479758,0.223
893652,71680,200,-1.147741,0.02930403,-0.1240537,-0.4239316,-0.7716728,0.7697192,137.51,0.223,-0.8693529,-0.717753254,0.43272284,0.225,0.0193406,-0.01484732,-0.02188036,1.169471914,0.224
893852,71880,200,-0.4239316,-0.7716728,0.7697192,-0.5108669,-1.441758,0.6710623,137.734,0.224,-0.8720879,-0.716971814,0.42256412,0.225,-0.002735,0.00078144,-0.01015872,1.670322044,0.223
894059,72087,207,-0.5108669,-1.441758,0.6710623,-1.13602,-1.073504,0.3409035,137.965,0.231,-0.9209279,-0.87931614,0.431550684,0.2246,-0.04884,-0.162344326,0.008986564,1.599739815,0.224
894259,72287,200,-1.13602,-1.073504,0.3409035,-1.14188,-0.3272283,0.4551893,138.188,0.223,-0.9631257,-0.91721602,0.448156284,0.2248,-0.0421978,-0.03789988,0.0166056,1.272071379,0.231
894459,72487,200,-1.14188,-0.3272283,0.4551893,-1.391941,-0.7824176,-0.07912088,138.41,0.222,-1.06354092,-0.97347982,0.492893764,0.2244,-0.10041522,-0.0562638,0.04473748,1.598729859,0.223
894660,72688,201,-1.391941,-0.7824176,-0.07912088,-0.6349206,-0.9611722,0.8527472,138.634,0.224,-1.08717932,-0.90197804,0.476678884,0.225,-0.0236384,0.07150178,-0.01621488,1.433231996,0.222
894860,72888,200,-0.6349206,-0.9611722,0.8527472,-1.012943,-1.723077,0.8947497,138.856,0.222,-1.0410744,-0.78788768,0.471013424,0.207,0.04610492,0.11409036,-0.00566546,2.189891526,0.224
895070,73098,210,-1.012943,-1.723077,0.8947497,-1.254212,-0.7159951,0.2598291,139.09,0.234,-1.0287668,-0.84532356,0.5137973,0.189,0.0123076,-0.05743588,0.042783876,1.467381302,0.222
895271,73299,201,-1.254212,-0.7159951,0.2598291,-0.9113554,0.2432235,0.426862,139.223,0.133,-1.04752138,-0.85606832,0.55658126,0.1706,-0.01875458,-0.01074476,0.04278396,1.035344147,0.234
895471,73499,200,-0.9113554,0.2432235,0.426862,-1.330403,-1.069597,0.1347985,139.355,0.132,-0.96078138,-0.88185592,0.62202692,0.1526,0.08674,-0.0257876,0.06544566,1.712361095,0.133
895671,73699,200,-1.330403,-1.069597,0.1347985,-0.7286935,-1.014896,1.066667,139.487,0.132,-0.93714298,-0.8373138,0.60796098,0.1358,0.0236384,0.04454212,-0.01406594,1.642798404,0.132
895872,73900,201,-0.7286935,-1.014896,1.066667,-0.579243,-1.852015,1.221978,139.619,0.132,-0.94007338,-0.93186814,0.64918198,0.136,-0.0029304,-0.09455434,0.041221,2.293188227,0.132
896099,74127,227,-0.579243,-1.852015,1.221978,-1.13602,-0.4932845,0.1894994,139.769,0.15,-0.85294272,-0.88771676,0.71032974,0.1364,0.08713066,0.04415138,0.06114776,1.252909039,0.132
896299,74327,200,-1.13602,-0.4932845,0.1894994,-0.9260074,-0.2295482,0.632967,139.903,0.134,-0.94026882,-0.93655696,0.61264958,0.1368,-0.0873261,-0.0488402,-0.09768016,1.14491454,0.15
896499,74527,200,-0.9260074,-0.2295482,0.632967,-0.8947497,-0.8488401,0.4405373,140.037,0.134,-0.94925538,-0.87677676,0.55482296,0.1372,-0.00898656,0.0597802,-0.05782662,1.309648676,0.134
896699,74727,200,-0.8947497,-0.8488401,0.4405373,-1.165324,-1.259097,0.5782662,140.171,0.134,-0.94769238,-0.8918195,0.5708425,0.136,0.001563,-0.01504274,0.01601954,1.810441128,0.134
896899,74927,200,-1.165324,-1.259097,0.5782662,-0.6241758,-1.553114,0.9328449,140.305,0.134,-0.9885227,-0.828132082,0.54231992,0.1358,-0.04083032,0.063687418,-0.02852258,1.916235407,0.134
897113,75141,214,-0.6241758,-1.553114,0.9328449,-1.128205,-0.5684982,0.2695971,140.449,0.144,-0.9369476,-0.809377502,0.5815873,0.1356,0.0515751,0.01875458,0.03926738,1.291789194,0.134
897313,75341,200,-1.128205,-0.5684982,0.2695971,-1.130159,0.08888889,0.4903541,140.582,0.133,-0.9045178,-0.793357902,0.60776556,0.1354,0.0324298,0.0160196,0.02617826,1.235154947,0.144
897513,75541,200,-1.130159,0.08888889,0.4903541,-0.6368742,-0.7550672,0.6368742,140.715,0.133,-0.97172172,-0.639609342,0.56947496,0.1352,-0.06720392,0.15374856,-0.0382906,1.175305905,0.133
897713,75741,200,-0.6368742,-0.7550672,0.6368742,-1.003175,-1.178999,0.7091575,140.848,0.133,-0.98735052,-0.646446942,0.59076922,0.1356,-0.0156288,-0.0068376,0.02129426,1.702734002,0.133
897913,75941,200,-1.003175,-1.178999,0.7091575,-0.9601954,-0.7843712,0.7413919,140.981,0.133,-1.07369972,-0.660708236,0.44620268,0.1358,-0.0863492,-0.014261294,-0.14456654,1.444602137,0.133
898132,76160,219,-0.9601954,-0.7843712,0.7413919,-1.206349,-0.6026862,0.3760684,141.127,0.146,-1.05943844,-0.611477456,0.42510378,0.136,0.01426128,0.04923078,-0.0210989,1.399977145,0.133
898332,76360,200,-1.206349,-0.6026862,0.3760684,-1.561905,0.01758242,-0.2324786,141.261,0.134,-0.97367524,-0.713846056,0.41064712,0.1364,0.0857632,-0.1023686,-0.01445666,1.579209508,0.146
898532,76560,200,-1.561905,0.01758242,-0.2324786,-0.5655678,-0.5089133,0.5313797,141.395,0.134,-1.02153856,-0.749401616,0.3494994,0.1366,-0.04786332,-0.03555556,-0.06114772,0.928021589,0.134
898733,76761,201,-0.5655678,-0.5089133,0.5313797,-0.574359,-1.690842,0.6368742,141.53,0.135,-0.98285736,-0.693137876,0.34227106,0.136,0.0386812,0.05626374,-0.00722834,1.895901811,0.134
898933,76961,200,-0.574359,-1.690842,0.6368742,-1.199512,-0.962149,0.4356533,141.664,0.134,-0.96293056,-0.76346754,0.32957264,0.136,0.0199268,-0.070329664,-0.01269842,1.598234505,0.135
899146,77174,213,-1.199512,-0.962149,0.4356533,-1.012943,-0.3213675,0.3399267,141.807,0.143,-1.01958502,-0.79492054,0.35477412,0.136,-0.05665446,-0.031453,0.02520148,1.115742243,0.134
899346,77374,200,-1.012943,-0.3213675,0.3399267,-1.462271,-0.3340659,-0.2959707,141.941,0.134,-1.00747268,-0.79863254,0.3534066,0.1358,0.01211234,-0.003712,-0.00136752,1.528867279,0.143
899546,77574,200,-1.462271,-0.3340659,-0.2959707,-0.8488401,-0.6661783,0.6573871,142.075,0.134,-1.06432248,-0.82676434,0.33543344,0.1358,-0.0568498,-0.0281318,-0.01797316,1.263519229,0.134
899747,77775,201,-0.8488401,-0.6661783,0.6573871,-0.5137973,-1.709402,0.6300366,142.209,0.134,-1.10515268,-0.81953602,0.34188034,0.1356,-0.0408302,0.00722832,0.0064469,1.892878491,0.134
899947,77975,200,-0.5137973,-1.709402,0.6300366,-1.483761,-1.102808,0.3457875,142.343,0.134,-1.10925528,-0.90725276,0.33973138,0.1354,-0.0041026,-0.08771674,-0.00214896,1.880771434,0.134
900158,78186,211,-1.483761,-1.102808,0.3457875,-1.217094,-0.2852259,0.3721612,142.485,0.142,-1.13328458,-0.96625154,0.32214896,0.1354,-0.0240293,-0.05899878,-0.01758242,1.304291217,0.134
900358,78386,200,-1.217094,-0.2852259,0.3721612,-1.482784,-0.7726496,-0.3067155,142.618,0.133,-1.12507944,-0.84844934,0.38251528,0.1352,0.00820514,0.1178022,0.06036632,1.699914761,0.142
900558,78586,200,-1.482784,-0.7726496,-0.3067155,-0.9689866,-0.9611722,0.569475,142.752,0.134,-1.13895004,-0.87677654,0.35653238,0.1352,-0.0138706,-0.0283272,-0.0259829,1.47888093,0.133
900758,78786,200,-0.9689866,-0.9611722,0.569475,-0.4727716,-1.120391,0.9318682,142.885,0.133,-1.11785124,-0.84141634,0.3952137,0.1358,0.0210988,0.0353602,0.03868132,1.532046775,0.134
900958,78986,200,-0.4727716,-1.120391,0.9318682,-1.553114,-1.244444,0.215873,143.019,0.134,-1.04967044,-0.8140659,0.54427354,0.136,0.0681808,0.02735044,0.14905984,2.001850424,0.133
901175,79203,217,-1.553114,-1.244444,0.215873,-1.1116,-0.1084249,0.5655678,143.164,0.145,-1.02114784,-0.83184366,0.60366304,0.136,0.0285226,-0.01777776,0.0593895,1.251909524,0.134
901376,79404,201,-1.1116,-0.1084249,0.5655678,-1.14188,-0.6358974,0.4385837,143.298,0.134,-1.05709414,-0.96586066,0.60210016,0.136,-0.0359463,-0.134017,-0.00156288,1.378626527,0.145
901577,79605,201,-1.14188,-0.6358974,0.4385837,-0.8263736,-1.050061,0.8664225,143.432,0.134,-1.00708194,-0.91702066,0.59291824,0.136,0.0500122,0.04884,-0.00918192,1.592548077,0.134
901777,79805,200,-0.8263736,-1.050061,0.8664225,-0.6525031,-1.790476,0.9240538,143.565,0.133,-0.97562886,-0.91741138,0.53704522,0.1358,0.03145308,-0.00039072,-0.05587302,2.117885745,0.134
901977,80005,200,-0.6525031,-1.790476,0.9240538,-1.303053,-1.000244,0.1699634,143.699,0.134,-0.97367526,-0.975238,0.53587306,0.138,0.0019536,-0.05782662,-0.00117216,1.651460789,0.133
902193,80221,216,-1.303053,-1.000244,0.1699634,-0.9543346,-0.1103785,0.2862027,143.843,0.144,-0.99926746,-0.94065926,0.52669114,0.14,-0.0255922,0.03457874,-0.00918192,1.002422031,0.134
902393,80421,200,-0.9543346,-0.1103785,0.2862027,-1.132112,-0.9250305,0.4327229,143.988,0.145,-0.99008552,-0.88361406,0.58432238,0.1424,0.00918194,0.0570452,0.05763124,1.524666559,0.144
902593,80621,200,-1.132112,-0.9250305,0.4327229,-0.9543346,-0.8771673,0.8205129,144.132,0.144,-0.97094012,-0.85880336,0.55970699,0.1448,0.0191454,0.0248107,-0.02461539,1.534085532,0.145
902793,80821,200,-0.9543346,-0.8771673,0.8205129,-0.6065934,-1.50525,1.21221,144.277,0.145,-0.9973138,-0.85841264,0.57377293,0.1482,-0.02637368,0.00039072,0.01406594,2.025632296,0.144
902994,81022,201,-0.6065934,-1.50525,1.21221,-1.207326,-0.8761905,0.04688645,144.423,0.146,-0.91409042,-0.84473744,0.60503055,0.1486,0.08322338,0.0136752,0.03125762,1.492495964,0.145
903217,81245,223,-1.207326,-0.8761905,0.04688645,-1.086203,-0.1084249,0.3565324,144.584,0.161,-0.9615629,-0.90725278,0.53860807,0.149,-0.04747248,-0.06251534,-0.06642248,1.148350238,0.146
903418,81446,201,-1.086203,-0.1084249,0.3565324,-0.7159951,-0.8566545,0.589011,144.731,0.147,-1.02564104,-0.86056178,0.46886449,0.1492,-0.06407814,0.046691,-0.06974358,1.262315283,0.161
903618,81646,200,-0.7159951,-0.8566545,0.589011,-1.191697,-1.189744,0.4884005,144.877,0.146,-1.00630044,-0.79316252,0.5178999,0.1492,0.0193406,0.06739926,0.04903541,1.753330423,0.147
903818,81846,200,-1.191697,-1.189744,0.4884005,-0.9269841,-1.271795,0.8634921,145.023,0.146,-1.03892544,-0.71560452,0.445030538,0.1484,-0.032625,0.077558,-0.072869362,1.795099064,0.146
904018,82046,200,-0.9269841,-1.271795,0.8634921,-1.110623,-0.5391942,0.2920635,145.169,0.146,-1.028376,-0.70993908,0.421391958,0.1482,0.01054944,0.00566544,-0.02363858,1.268666592,0.146
904234,82262,216,-1.110623,-0.5391942,0.2920635,-1.249328,0.2793651,-0.007814408,145.326,0.157,-0.92542122,-0.79472528,0.514188038,0.1484,0.10295478,-0.0847862,0.09279608,1.280205599,0.146
904434,82462,200,-1.249328,0.2793651,-0.007814408,-0.6632479,-0.8283273,0.4708181,145.472,0.146,-0.93597068,-0.72595848,0.476483518,0.1484,-0.01054946,0.0687668,-0.03770452,1.160902053,0.157
904635,82663,201,-0.6632479,-0.8283273,0.4708181,-0.6769231,-1.613675,0.9523809,145.619,0.147,-0.93264948,-0.71326006,0.489181938,0.1484,0.0033212,0.01269842,0.01269842,1.992285438,0.146
904835,82863,200,-0.6769231,-1.613675,0.9523809,-0.9797314,-0.927961,0.6749695,145.765,0.146,-0.93675208,-0.74920634,0.489181938,0.1482,-0.0041026,-0.03594628,0,1.508830361,0.147
905035,83063,200,-0.9797314,-0.927961,0.6749695,-1.094017,-0.4757021,0.3555556,145.911,0.146,-0.9390964,-0.75057386,0.472185598,0.1484,-0.00234432,-0.00136752,-0.01699634,1.244823469,0.146
905249,83277,214,-1.094017,-0.4757021,0.3555556,-1.269841,0.0996337,-0.007814408,146.067,0.156,-0.9258119,-0.74354086,0.324102578,0.1484,0.0132845,0.007033,-0.14808302,1.273767681,0.146
905449,83477,200,-1.269841,0.0996337,-0.007814408,-0.6749695,-0.8351649,0.3858364,146.214,0.147,-0.96234422,-0.78925506,0.290500618,0.1484,-0.03653232,-0.0457142,-0.03360196,1.141031973,0.156
905650,83678,201,-0.6749695,-0.8351649,0.3858364,-0.6105006,-1.57851,0.2119658,146.361,0.147,-0.95726482,-0.78573858,0.289523818,0.1484,0.0050794,0.00351648,-0.0009768,1.705677081,0.147
905850,83878,200,-0.6105006,-1.57851,0.2119658,-1.162393,-1.156532,0.5069597,146.507,0.146,-1.00239302,-0.84766776,0.34910868,0.1484,-0.0451282,-0.06192918,0.059584862,1.716313459,0.147
906050,84078,200,-1.162393,-1.156532,0.5069597,-1.06862,-0.4581197,0.3506716,146.653,0.146,-0.9715261,-0.82715492,0.43409038,0.1486,0.03086692,0.02051284,0.0849817,1.21441053,0.146
906263,84291,213,-1.06862,-0.4581197,0.3506716,-1.495482,-0.2100122,0.2901099,146.809,0.156,-0.910183,-0.87462752,0.5802198,0.149,0.0613431,-0.0474726,0.14612942,1.537769583,0.146
906465,84493,202,-1.495482,-0.2100122,0.2901099,-0.5206349,-0.7326007,0.8107449,146.957,0.148,-0.9078388,-0.86681312,0.56595852,0.15,0.0023442,0.0078144,-0.01426128,1.210401494,0.156
906667,84695,202,-0.5206349,-0.7326007,0.8107449,-0.3037851,-1.815873,0.9426129,147.106,0.149,-0.9406594,-0.763076848,0.63238098,0.1502,-0.0328206,0.103736272,0.06642246,2.06838082,0.148
906872,84900,205,-0.3037851,-1.815873,0.9426129,-1.150672,-1.11746,0.4356533,147.257,0.151,-0.872088,-0.996141608,0.6415629,0.1486,0.0685714,-0.23306476,0.00918192,1.662094071,0.149
907072,85100,200,-1.150672,-1.11746,0.4356533,-1.232723,0.06056166,0.6827839,147.404,0.147,-0.89885236,-1.002002428,0.6503541,0.1484,-0.02676436,-0.00586082,0.0087912,1.410484868,0.151
907273,85301,201,-1.232723,0.06056166,0.6827839,-1.152625,-1.375336,0.3360195,147.552,0.148,-0.94515274,-0.995555628,0.70036632,0.148,-0.04630038,0.0064468,0.05001222,1.825651283,0.147
907473,85501,200,-1.152625,-1.375336,0.3360195,-0.6544567,-0.7619048,0.8547009,147.699,0.147,-0.90998782,-0.942026988,0.68434678,0.1472,0.03516492,0.05352864,-0.01601954,1.318835139,0.148
907673,85701,200,-0.6544567,-0.7619048,0.8547009,-0.535287,-1.783639,1.192674,147.846,0.147,-0.87384622,-0.98676448,0.66324788,0.147,0.0361416,-0.044737492,-0.0210989,2.211418442,0.147
907873,85901,200,-0.535287,-1.783639,1.192674,-0.9748474,-0.8498168,0.3555556,147.993,0.147,-0.81934076,-0.94671568,0.69274728,0.148,0.05450546,0.0400488,0.0294994,1.341244136,0.147
908073,86101,200,-0.9748474,-0.8498168,0.3555556,-1.052015,-0.1631258,0.5772894,148.139,0.146,-0.83653244,-0.97738722,0.68903542,0.1648,-0.01719168,-0.03067154,-0.00371186,1.211036184,0.147
908280,86308,207,-1.052015,-0.1631258,0.5772894,-0.8800977,-1.175092,0.4835165,148.292,0.153,-0.8425886,-0.96761922,0.62222226,0.1814,-0.00605616,0.009768,-0.06681316,1.545704168,0.146
908481,86509,201,-0.8800977,-1.175092,0.4835165,-0.7404151,-0.9152625,0.8361416,148.523,0.231,-0.83301594,-0.94065952,0.63609282,0.1982,0.00957266,0.0269597,0.01387056,1.44397117,0.153
908681,86709,200,-0.7404151,-0.9152625,0.8361416,-0.5655678,-1.734799,0.8586082,148.753,0.23,-0.82520154,-0.921318854,0.61440784,0.2152,0.0078144,0.019340666,-0.02168498,2.016581897,0.231
908881,86909,200,-0.5655678,-1.734799,0.8586082,-0.9269841,-0.7150183,0.4249084,148.984,0.231,-0.8062516,-0.828327314,0.6587546,0.2374,0.01894994,0.09299154,0.04434676,1.245430785,0.23
909082,87110,201,-0.9269841,-0.7150183,0.4249084,-1.012943,-0.06642247,0.4688645,149.215,0.231,-0.87286938,-0.879121014,0.66207572,0.2382,-0.06661778,-0.0507937,0.00332112,1.11816787,0.231
909311,87339,229,-1.012943,-0.06642247,0.4688645,-0.785348,-0.7101343,0.7052503,149.479,0.264,-0.91291822,-0.754871814,0.70505488,0.2392,-0.04004884,0.1242492,0.04297916,1.272179308,0.231
909512,87540,201,-0.785348,-0.7101343,0.7052503,-1.073504,-1.169231,0.8527472,149.714,0.235,-0.949646,-0.713846174,0.6603174,0.24,-0.03672778,0.04102564,-0.04473748,1.801857307,0.264
909713,87741,201,-1.073504,-1.169231,0.8527472,-0.765812,-1.113553,1.073504,149.949,0.235,-1.0047376,-0.684542144,0.61245414,0.2406,-0.0550916,0.02930403,-0.04786326,1.725942972,0.235
909914,87942,201,-0.765812,-1.113553,1.073504,-1.110623,-0.5098901,0.201221,150.184,0.235,-0.97543356,-0.665592204,0.59975574,0.2378,0.02930404,0.01894994,-0.0126984,1.238531894,0.235
910114,88142,200,-1.110623,-0.5098901,0.201221,-1.288401,0.08009768,0.2295482,150.418,0.234,-0.94593424,-0.710525004,0.5843223,0.226,0.02949932,-0.0449328,-0.01543344,1.311138876,0.235
910328,88356,214,-1.288401,0.08009768,0.2295482,-0.6388278,-0.6153846,0.6417583,150.668,0.25,-1.00258864,-0.694896204,0.54427352,0.2142,-0.0566544,0.0156288,-0.04004878,1.094830069,0.234
910530,88558,202,-0.6388278,-0.6153846,0.6417583,-0.9260074,-1.393895,0.77558,150.844,0.176,-0.98871804,-0.667936504,0.5600977,0.202,0.0138706,0.0269597,0.01582418,1.844439566,0.25
910732,88760,202,-0.9260074,-1.393895,0.77558,-1.049084,-1.035409,0.8732601,151.02,0.176,-0.98695964,-0.67418803,0.54974362,0.19,0.0017584,-0.006251526,-0.01035408,1.713251948,0.176
910932,88960,200,-1.049084,-1.035409,0.8732601,-1.04127,-0.3750916,0.2803419,151.194,0.174,-0.96898652,-0.67848595,0.51418806,0.1778,0.01797312,-0.00429792,-0.03555556,1.141721727,0.176
911132,89160,200,-1.04127,-0.3750916,0.2803419,-1.279609,0.04884005,0.1777778,151.368,0.174,-0.92835158,-0.66188035,0.45538464,0.1778,0.04063494,0.0166056,-0.05880342,1.292822296,0.174
911349,89377,217,-1.279609,0.04884005,0.1777778,-0.5489622,-0.6368742,0.4639805,151.557,0.189,-0.9123321,-0.66481075,0.41768012,0.1776,0.01601948,-0.0029304,-0.03770452,0.960336476,0.174
911550,89578,201,-0.5489622,-0.6368742,0.4639805,-0.7228327,-1.310867,0.4815629,151.733,0.176,-0.9172161,-0.68571429,0.42940172,0.1776,-0.004884,-0.02090354,0.0117216,1.572501902,0.189
911750,89778,200,-0.7228327,-1.310867,0.4815629,-0.9689866,-1.050061,0.6847375,151.908,0.175,-0.9404641,-0.683565328,0.35008548,0.1778,-0.023248,0.002148962,-0.07931624,1.584433204,0.176
911950,89978,200,-0.9689866,-1.050061,0.6847375,-1.06569,-0.4796093,0.3389499,152.082,0.174,-0.9291332,-0.734358988,0.3793895,0.1778,0.0113309,-0.05079366,0.02930402,1.216802076,0.175
912150,90178,200,-1.06569,-0.4796093,0.3389499,-1.395849,0.05958486,-0.2188034,152.257,0.175,-0.88380964,-0.724395588,0.36258852,0.1774,0.04532356,0.0099634,-0.01680098,1.41414982,0.174
912366,90394,216,-1.395849,0.05958486,-0.2188034,-0.4923077,-0.8908425,0.6105006,152.446,0.189,-0.93128212,-0.771672788,0.3239072,0.177,-0.04747248,-0.0472772,-0.03868132,1.186877506,0.175
912566,90594,200,-0.4923077,-0.8908425,0.6105006,-0.4962149,-1.26105,0.397558,152.62,0.174,-0.94280832,-0.800976808,0.34383396,0.1772,-0.0115262,-0.02930402,0.01992676,1.412277838,0.189
912766,90794,200,-0.4962149,-1.26105,0.397558,-1.206349,-1.286447,0.4913309,152.793,0.173,-0.94144072,-0.808595856,0.37899879,0.177,0.0013676,-0.007619048,0.03516483,1.830745708,0.174
912967,90995,201,-1.206349,-1.286447,0.4913309,-1.123321,-0.6261294,0.4385837,152.968,0.175,-0.9631257,-0.791208796,0.39755801,0.178,-0.02168498,0.01738706,0.01855922,1.358765527,0.173
913167,91195,200,-1.123321,-0.6261294,0.4385837,-1.389011,0.02148962,-0.04297925,153.142,0.174,-0.9514041,-0.913504196,0.43018317,0.1786,0.0117216,-0.1222954,0.03262516,1.389841925,0.175
913391,91419,224,-1.389011,0.02148962,-0.04297925,-0.6007326,-0.8039072,0.7032967,153.336,0.194,-0.9492551,-0.886544396,0.41572651,0.1792,0.002149,0.0269598,-0.01445666,1.225468356,0.174
913593,91621,202,-0.6007326,-0.8039072,0.7032967,-0.4376069,-1.872527,0.5606838,153.513,0.177,-0.9588277,-0.851770296,0.42158729,0.1794,-0.0095726,0.0347741,0.00586078,2.003053541,0.194
913793,91821,200,-0.4376069,-1.872527,0.5606838,-1.195604,-1.151648,0.4190476,153.689,0.176,-0.9293283,-0.95882768,0.44014651,0.1796,0.0294994,-0.107057384,0.01855922,1.712122347,0.177
913994,92022,201,-1.195604,-1.151648,0.4190476,-1.171184,-0.4522589,0.4678876,153.865,0.176,-0.93655662,-0.98031732,0.44366299,0.178,-0.00722832,-0.02148964,0.00351648,1.339824198,0.176
914194,92222,200,-1.171184,-0.4522589,0.4678876,-1.241514,-0.5137973,0.04981685,154.04,0.175,-0.97992658,-0.95882772,0.43135529,0.1776,-0.04336996,0.0214896,-0.0123077,1.344554349,0.176
914406,92434,212,-1.241514,-0.5137973,0.04981685,-0.6368742,-0.9113554,0.7208791,154.226,0.186,-0.98930398,-0.95531132,0.42275945,0.177,-0.0093774,0.0035164,-0.00859584,1.325082672,0.175
914607,92635,201,-0.6368742,-0.9113554,0.7208791,-0.6544567,-1.765079,0.4991453,154.401,0.175,-1.06100118,-0.89240532,0.314920636,0.1766,-0.0716972,0.062906,-0.107838814,1.947553203,0.186
914807,92835,200,-0.6544567,-1.765079,0.4991453,-1.242491,-1.134066,0.3760684,154.574,0.173,-1.04654458,-1.04537246,0.362588526,0.1764,0.0144566,-0.15296714,0.04766789,1.723750858,0.175
915007,93035,200,-1.242491,-1.134066,0.3760684,-1.52967,-0.1377289,-0.07130647,154.748,0.174,-1.08170944,-1.04205132,0.371770466,0.1778,-0.03516486,0.00332114,0.00918194,1.537512332,0.173
915207,93235,200,-1.52967,-0.1377289,-0.07130647,-1.169231,-1.278633,0.2881563,154.922,0.174,-1.05826622,-1.03150192,0.521611806,0.2218,0.02344322,0.0105494,0.14984134,1.756427492,0.174
915429,93457,222,-1.169231,-1.278633,0.2881563,-0.8126985,-0.8947497,0.7667888,155.115,0.193,-1.04693522,-0.96449336,0.498754666,0.2658,0.011331,0.06700856,-0.02285714,1.431440163,0.174
915630,93658,201,-0.8126985,-0.8947497,0.7667888,-0.5372406,-1.712332,1.248352,155.51,0.395,-0.96683762,-0.953943918,0.56009776,0.3098,0.0800976,0.010549442,0.061343094,2.18611323,0.193
915830,93858,200,-0.5372406,-1.712332,1.248352,-1.185836,-0.7990232,0.2617827,155.903,0.393,-0.93714282,-0.858803418,0.58725282,0.3536,0.0296948,0.0951405,0.02715506,1.453676468,0.395
916030,94058,200,-1.185836,-0.7990232,0.2617827,-1.129182,-0.08498169,0.235409,156.297,0.394,-0.9568742,-0.975628878,0.59057394,0.4022,-0.01973138,-0.11682546,0.00332112,1.156586043,0.393
916230,94258,200,-1.129182,-0.08498169,0.235409,-1.020757,-0.8029305,0.4239316,156.69,0.393,-0.99125758,-0.844346878,0.5374359,0.389,-0.03438338,0.131282,-0.05313804,1.366147958,0.394
916452,94480,222,-1.020757,-0.8029305,0.4239316,-0.9113554,-1.478877,0.7833944,157.126,0.436,-0.98012218,-0.787887778,0.52630036,0.3758,0.0111354,0.0564591,-0.01113554,1.905610829,0.393
916654,94682,202,-0.9113554,-1.478877,0.7833944,-0.7091575,-1.055922,0.9826618,157.455,0.329,-1.04107458,-0.67653246,0.40615384,0.362,-0.0609524,0.111355318,-0.12014652,1.607326925,0.436
916855,94883,201,-0.7091575,-1.055922,0.9826618,-1.130159,-0.5167277,0.206105,157.782,0.327,-0.95785114,-0.62300376,0.3592674,0.3484,0.08322344,0.0535287,-0.04688644,1.259661126,0.329
917055,95083,200,-1.130159,-0.5167277,0.206105,-1.433944,0.4717949,-0.3653236,158.107,0.325,-0.84571438,-0.61870576,0.33777778,0.3334,0.11213676,0.004298,-0.02148962,1.553141061,0.327
917255,95283,200,-1.433944,0.4717949,-0.3653236,-0.6046398,-0.535287,0.1894994,158.432,0.325,-0.88126994,-0.66148956,0.26764346,0.3334,-0.03555556,-0.0427838,-0.07013432,0.829476632,0.325
917477,95505,222,-0.6046398,-0.535287,0.1894994,-0.3506716,-1.457387,0.6759463,158.793,0.361,-0.86329674,-0.66090348,0.28503052,0.334,0.0179732,0.00058608,0.01738706,1.644339028,0.325
917677,95705,200,-0.3506716,-1.457387,0.6759463,-0.8869353,-1.269841,0.6319902,159.122,0.329,-0.83887674,-0.81914524,0.3121856,0.3348,0.02442,-0.15824176,0.02715508,1.672890315,0.361
917878,95906,201,-0.8869353,-1.269841,0.6319902,-1.040293,-0.5137973,0.2930403,159.452,0.33,-0.82969482,-0.88185586,0.36708182,0.3356,0.00918192,-0.06271062,0.05489622,1.196691192,0.329
918078,96106,200,-1.040293,-0.5137973,0.2930403,-1.311844,-0.3194139,-0.2295482,159.781,0.329,-0.89045184,-0.88420026,0.31550672,0.3338,-0.06075702,-0.0023444,-0.0515751,1.369544558,0.33
918278,96306,200,-1.311844,-0.3194139,-0.2295482,-0.5587302,-0.8488401,0.4639805,160.11,0.329,-0.92952398,-0.84708186,0.28503054,0.333,-0.03907214,0.0371184,-0.03047618,1.117133321,0.329
918492,96520,214,-0.5587302,-0.8488401,0.4639805,-0.6544567,-1.469109,0.4180708,160.462,0.352,-0.93421258,-0.83028088,0.32957266,0.332,-0.0046886,0.01680098,0.04454212,1.661739456,0.329
918692,96720,200,-0.6544567,-1.469109,0.4180708,-1.082296,-1.084249,0.4796093,160.787,0.325,-0.89103798,-0.77714291,0.41064714,0.3312,0.0431746,0.05313797,0.08107448,1.605299226,0.352
918892,96920,200,-1.082296,-1.084249,0.4796093,-1.063736,-0.4297924,0.5157509,161.112,0.325,-0.85860818,-0.79902323,0.43369964,0.3306,0.0324298,-0.02188032,0.0230525,1.257877091,0.325
919092,97120,200,-1.063736,-0.4297924,0.5157509,-1.095971,-0.05372405,0.1758242,161.437,0.325,-0.83731392,-0.86329663,0.4923077,0.3334,0.02129426,-0.0642734,0.05860806,1.111284327,0.325
919293,97321,201,-1.095971,-0.05372405,0.1758242,-0.3965812,-0.9582417,0.579243,161.763,0.326,-0.80859586,-0.84122093,0.46241758,0.3332,0.02871806,0.0220757,-0.02989012,1.187866262,0.325
919518,97546,225,-0.3965812,-0.9582417,0.579243,-0.5479854,-1.790476,0.7111111,162.129,0.366,-0.80175826,-0.80879115,0.4829304,0.333,0.0068376,0.03242978,0.02051282,2.002940664,0.326
919718,97746,200,-0.5479854,-1.790476,0.7111111,-0.9387057,-0.9738705,0.3301587,162.453,0.324,-0.81269846,-0.99340654,0.53040292,0.3328,-0.0109402,-0.18461539,0.04747252,1.392335056,0.366
919918,97946,200,-0.9387057,-0.9738705,0.3301587,-1.029548,-0.2676435,0.618315,162.777,0.324,-0.8576313,-0.95218556,0.54896214,0.3328,-0.04493284,0.04122098,0.01855922,1.230412763,0.324
920118,98146,200,-1.029548,-0.2676435,0.618315,-1.150672,-0.976801,0.4131868,163.101,0.324,-0.8732601,-0.99145296,0.61108672,0.3338,-0.0156288,-0.0392674,0.06212458,1.564899223,0.324
920319,98347,201,-1.150672,-0.976801,0.4131868,-0.6212454,-0.7521368,0.6720391,163.427,0.326,-0.89064716,-0.9496459,0.61206352,0.3396,-0.01738706,0.04180706,0.0009768,1.184606333,0.324
920548,98576,229,-0.6212454,-0.7521368,0.6720391,-0.6261294,-1.986813,1.021734,163.798,0.371,-0.85567774,-0.93421244,0.57474974,0.3448,0.03496942,0.01543346,-0.03731378,2.320216432,0.326
920749,98777,201,-0.6261294,-1.986813,1.021734,-1.025641,-0.7648352,0.3350427,164.151,0.353,-0.79785104,-0.92854698,0.62437124,0.3502,0.0578267,0.00566546,0.0496215,1.322560379,0.371
920949,98977,200,-1.025641,-0.7648352,0.3350427,-0.8547009,-0.1904762,0.4317461,164.501,0.35,-0.86446888,-1.06608062,0.66422472,0.3552,-0.06661784,-0.13753364,0.03985348,0.976319367,0.353
921149,99177,200,-0.8547009,-0.1904762,0.4317461,-0.8615385,-0.9484737,0.6612943,164.852,0.351,-0.82324788,-0.96879122,0.65914532,0.3574,0.041221,0.0972894,-0.0050794,1.441929644,0.35
921349,99377,200,-0.8615385,-0.9484737,0.6612943,-0.9543346,-1.439805,0.8713065,165.203,0.351,-0.83575088,-0.97152626,0.620464,0.3578,-0.012503,-0.00273504,-0.03868132,1.934675162,0.351
921567,99595,218,-0.9543346,-1.439805,0.8713065,-0.4200244,-1.500366,0.996337,165.585,0.382,-0.81523806,-1.03677656,0.67321124,0.358,0.02051282,-0.0652503,0.05274724,1.849379909,0.351
921769,99797,202,-0.4200244,-1.500366,0.996337,-1.088156,-0.7785104,0.1416361,165.94,0.355,-0.87794876,-1.05982902,0.72869352,0.358,-0.0627107,-0.02305246,0.05548228,1.345445171,0.382
921969,99997,200,-1.088156,-0.7785104,0.1416361,-0.7521368,-0.5167277,0.6954823,166.291,0.351,-0.83633702,-1.07115982,0.74393162,0.3584,0.04161174,-0.0113308,0.0152381,1.147350387,0.355
922169,100197,200,-0.7521368,-0.5167277,0.6954823,-1.175092,-1.063736,0.9387057,166.642,0.351,-0.86681322,-0.94398038,0.74627602,0.357,-0.0304762,0.12717944,0.0023444,1.842157398,0.351
922370,100398,201,-1.175092,-1.063736,0.9387057,-0.7462759,-1.496459,0.947497,166.995,0.353,-0.86446902,-0.9070573,0.74334562,0.3564,0.0023442,0.03692308,-0.0029304,1.921995792,0.351
922584,100612,214,-0.7462759,-1.496459,0.947497,-0.5724054,-0.8644688,1.008059,167.37,0.375,-0.91584866,-0.76151396,0.66949946,0.3566,-0.05137964,0.14554334,-0.07384616,1.446076483,0.353
922784,100812,200,-0.5724054,-0.8644688,1.008059,-1.076435,-0.593895,0.1269841,167.722,0.352,-0.82442,-0.68864466,0.55130656,0.3568,0.09142866,0.0728693,-0.1181929,1.235940347,0.375
922984,101012,200,-1.076435,-0.593895,0.1269841,-1.009035,0.210989,0.3262515,168.074,0.352,-0.81914528,-0.75233206,0.50813194,0.3564,0.00527472,-0.0636874,-0.04317462,1.081252991,0.352
923184,101212,200,-1.009035,0.210989,0.3262515,-0.7179487,-0.6993895,0.3477412,168.426,0.352,-0.84805858,-0.8293039,0.4794139,0.3574,-0.0289133,-0.07697184,-0.02871804,1.060905251,0.352
923384,101412,200,-0.7179487,-0.6993895,0.3477412,-0.7199023,-1.814896,0.7316239,168.777,0.351,-0.85216118,-0.84493272,0.49484736,0.3574,-0.0041026,-0.01562882,0.01543346,2.085037252,0.352
923600,101628,216,-0.7199023,-1.814896,0.7316239,-0.7169719,-1.249328,0.8644688,169.157,0.38,-0.93948718,-0.872087784,0.33719168,0.3572,-0.087326,-0.027155064,-0.15765568,1.679933172,0.351
923800,101828,200,-0.7169719,-1.249328,0.8644688,-1.096948,-0.6720391,0.2041514,169.509,0.352,-0.91076924,-0.862319784,0.36512818,0.3572,0.02871794,0.009768,0.0279365,1.302539543,0.38
924000,102028,200,-1.096948,-0.6720391,0.2041514,-1.445665,0.07521368,-0.4620269,169.86,0.351,-0.88146522,-0.754285584,0.31199022,0.3572,0.02930402,0.1080342,-0.05313796,1.519563505,0.352
924200,102228,200,-1.445665,0.07521368,-0.4620269,-0.574359,-0.6505495,0.4874237,170.212,0.352,-0.93284494,-0.735921784,0.23286936,0.3574,-0.05137972,0.0183638,-0.07912086,0.995331491,0.351
924400,102428,200,-0.574359,-0.6505495,0.4874237,-0.5733822,-1.274725,0.4659341,170.563,0.351,-0.91311344,-0.676727644,0.26783884,0.357,0.0197315,0.05919414,0.03496948,1.473358598,0.352
924617,102645,217,-0.5733822,-1.274725,0.4659341,-0.9738705,-1.157509,0.4688645,170.944,0.381,-0.89338224,-0.7535042,0.3799756,0.3568,0.0197312,-0.076776556,0.11213676,1.583693391,0.351
924817,102845,200,-0.9738705,-1.157509,0.4688645,-0.9982905,-0.3760684,0.3789988,171.294,0.35,-0.87169726,-0.7525274,0.424127,0.3562,0.02168498,0.0009768,0.0441514,1.132100461,0.381
925017,103045,200,-0.9982905,-0.3760684,0.3789988,-1.347009,-0.3086691,0.0986569,171.644,0.35,-0.82168504,-0.8498168,0.42862028,0.356,0.05001222,-0.0972894,0.00449328,1.385439657,0.35
925217,103245,200,-1.347009,-0.3086691,0.0986569,-0.4659341,-0.6456655,0.7081807,171.993,0.349,-0.84962154,-0.8484494,0.46300368,0.358,-0.0279365,0.0013674,0.0343834,1.065597685,0.35
925417,103445,200,-0.4659341,-0.6456655,0.7081807,-0.3233211,-1.761172,0.4884005,172.343,0.35,-0.87013444,-0.86876684,0.48175824,0.3752,-0.0205129,-0.02031744,0.01875456,1.856016809,0.349
925640,103668,223,-0.3233211,-1.761172,0.4884005,-1.113553,-1.150672,0.6407815,172.734,0.391,-0.86603184,-0.91780226,0.45323565,0.3926,0.0041026,-0.04903542,-0.02852259,1.724716576,0.35
925840,103868,200,-1.113553,-1.150672,0.6407815,-1.100855,-0.4776556,0.4727716,173.17,0.436,-0.90705748,-0.94827844,0.44776557,0.4104,-0.04102564,-0.03047618,-0.00547008,1.289786645,0.391
926040,104068,200,-1.100855,-0.4776556,0.4727716,-1.326496,-0.5538462,-0.04395605,173.607,0.437,-0.95296714,-0.94847384,0.46183151,0.4278,-0.04590966,-0.0001954,0.01406594,1.438147901,0.436
926241,104269,201,-1.326496,-0.5538462,-0.04395605,-0.6710623,-0.7980464,0.6808303,174.045,0.438,-0.97797334,-0.94866904,0.44190477,0.4442,-0.0250062,-0.0001952,-0.01992674,1.24528413,0.437
926441,104469,200,-0.6710623,-0.7980464,0.6808303,-0.5528694,-1.762149,0.5587302,174.482,0.437,-0.98735054,-0.9342124,0.43350431,0.4272,-0.0093772,0.01445664,-0.00840046,1.929511106,0.438
926658,104686,217,-0.5528694,-1.762149,0.5587302,-1.238584,-1.151648,0.5411478,174.955,0.473,-1.01196594,-0.95120872,0.450109928,0.41,-0.0246154,-0.01699632,0.016605618,1.775732069,0.437
926858,104886,200,-1.238584,-1.151648,0.5411478,-1.147741,-0.4053724,0.4307693,175.306,0.351,-1.03755812,-0.95257626,0.452454248,0.393,-0.02559218,-0.00136754,0.00234432,1.291200362,0.473
927058,105086,200,-1.147741,-0.4053724,0.4307693,-1.449573,-0.6388278,0.03907204,175.657,0.351,-1.07526262,-0.95413906,0.427448148,0.3758,-0.0377045,-0.0015628,-0.0250061,1.584578639,0.351
927259,105287,201,-1.449573,-0.6388278,0.03907204,-0.7990232,-0.8048841,0.6925519,176.01,0.353,-1.07623942,-0.92620266,0.403418828,0.3578,-0.0009768,0.0279364,-0.02402932,1.328873441,0.351
927459,105487,200,-0.7990232,-0.8048841,0.6925519,-0.7413919,-1.769963,0.4336997,176.361,0.351,-1.04908442,-0.87072036,0.422368748,0.36,0.027155,0.0554823,0.01894992,1.967365345,0.353
927677,105705,218,-0.7413919,-1.769963,0.4336997,-1.243468,-1.011966,0.4210012,176.744,0.383,-1.00043962,-0.91643466,0.4721856,0.3606,0.0486448,-0.0457143,0.049816852,1.657567453,0.351
927882,105910,205,-1.243468,-1.011966,0.4210012,-1.011966,-0.1279609,0.5255189,177.106,0.362,-1.03072042,-0.96332104,0.48039072,0.361,-0.0302808,-0.04688638,0.00820512,1.147440321,0.383
928082,106110,200,-1.011966,-0.1279609,0.5255189,-1.206349,-0.8673993,0.2881563,177.46,0.354,-1.00708184,-0.93479844,0.53919412,0.3618,0.02363858,0.0285226,0.0588034,1.513503719,0.362
928283,106311,201,-1.206349,-0.8673993,0.2881563,-0.9504272,-1.039316,0.7335775,177.815,0.355,-1.01294264,-0.91623918,0.51789986,0.357,-0.0058608,0.01855926,-0.02129426,1.587962707,0.354
928484,106512,201,-0.9504272,-1.039316,0.7335775,-0.623199,-1.62735,0.7277167,178.17,0.355,-1.03658124,-0.875799626,0.4794139,0.3554,-0.0236386,0.040439554,-0.03848596,1.888442907,0.355
928687,106715,203,-0.623199,-1.62735,0.7277167,-1.272772,-0.9191697,0.3145299,178.529,0.359,-1.02075704,-0.893577386,0.53509156,0.355,0.0158242,-0.01777776,0.05567766,1.601171621,0.355
928888,106916,201,-1.272772,-0.9191697,0.3145299,-1.130159,0.07423687,0.3330891,178.883,0.354,-1.044591,-0.937142786,0.5030525,0.3544,-0.02383396,-0.0435654,-0.03203906,1.180558693,0.359
929088,107116,200,-1.130159,0.07423687,0.3330891,-1.127228,-0.9562881,0.5665446,179.235,0.352,-1.0617827,-0.948669186,0.56537236,0.3538,-0.0171917,-0.0115264,0.06231986,1.58306749,0.354
929288,107316,200,-1.127228,-0.9562881,0.5665446,-1.069597,-1.257143,0.5733822,179.587,0.352,-1.0565079,-0.905689946,0.57064708,0.3578,0.0052748,0.04297924,0.00527472,1.747344675,0.352
929488,107516,200,-1.069597,-1.257143,0.5733822,-0.7091575,-1.684982,1.039316,179.939,0.352,-1.0436141,-0.926788846,0.55892548,0.3586,0.0128938,-0.0210989,-0.0117216,2.102913799,0.352
929703,107731,215,-0.7091575,-1.684982,1.039316,-1.246398,-0.7042735,0.3409035,180.318,0.379,-0.98871794,-0.949060026,0.46984122,0.3586,0.05489616,-0.02227118,-0.08908426,1.471640015,0.352
929908,107936,205,-1.246398,-0.7042735,0.3409035,-1.06569,-0.03125763,0.2744811,180.676,0.358,-0.94612944,-1.033064826,0.51145294,0.3582,0.0425885,-0.0840048,0.04161172,1.100914206,0.379
930109,108137,201,-1.06569,-0.03125763,0.2744811,-0.8527472,-1.067644,0.1211233,181.028,0.352,-0.90471308,-0.980708226,0.54818074,0.3576,0.04141636,0.0523566,0.0367278,1.371755208,0.358
930309,108337,200,-0.8527472,-1.067644,0.1211233,-0.8566545,-1.677167,0.7814408,181.378,0.35,-0.88732608,-0.979731426,0.5175092,0.3574,0.017387,0.0009768,-0.03067154,2.038969299,0.352
930509,108537,200,-0.8566545,-1.677167,0.7814408,-0.5020757,-1.423199,1.222955,181.727,0.349,-0.92542128,-0.98207575,0.49289382,0.3566,-0.0380952,-0.002344324,-0.02461538,1.942471193,0.35
930725,108753,216,-0.5020757,-1.423199,1.222955,-1.159463,-0.6993895,0.1875458,182.105,0.378,-0.8988523,-0.93108665,0.54818076,0.3568,0.02656898,0.0509891,0.05528694,1.366994348,0.349
930926,108954,201,-1.159463,-0.6993895,0.1875458,-1.256166,-0.04297925,0.1514042,182.459,0.354,-0.90139196,-0.91272285,0.49973144,0.3572,-0.00253966,0.0183638,-0.04844932,1.265987151,0.378
931126,109154,200,-1.256166,-0.04297925,0.1514042,-0.7199023,-0.8126985,0.397558,182.812,0.353,-0.94866912,-0.87814405,0.43721616,0.3582,-0.04727716,0.0345788,-0.06251528,1.156196582,0.354
931326,109354,200,-0.7199023,-0.8126985,0.397558,-0.8693528,-1.585348,0.5391942,183.164,0.352,-0.94261292,-0.86114771,0.44561664,0.357,0.0060562,0.01699634,0.00840048,1.88675196,0.353
931527,109555,201,-0.8693528,-1.585348,0.5391942,-0.7384615,-1.250305,0.9103786,183.518,0.354,-0.94417592,-0.76327226,0.432918218,0.3742,-0.001563,0.09787545,-0.012698422,1.713877818,0.352
931738,109766,211,-0.7384615,-1.250305,0.9103786,-1.129182,-0.6144078,0.2295482,183.89,0.372,-0.9521857,-0.74588518,0.436630058,0.3912,-0.00800978,0.01738708,0.00371184,1.305848885,0.354
931939,109967,201,-1.129182,-0.6144078,0.2295482,-1.263981,0.446398,0.08791209,184.33,0.44,-0.9277657,-0.73533578,0.411623938,0.4084,0.02442,0.0105494,-0.02500612,1.343371757,0.372
932139,110167,200,-1.263981,0.446398,0.08791209,-0.7599512,-0.7257631,0.4161172,184.768,0.438,-0.93655692,-0.77167278,0.389352858,0.425,-0.00879122,-0.036337,-0.02227108,1.130226273,0.44
932339,110367,200,-0.7599512,-0.7257631,0.4161172,-0.7472528,-1.532601,0.4141636,185.206,0.438,-0.94691092,-0.77811968,0.388962138,0.4448,-0.010354,-0.0064469,-0.00039072,1.75464642,0.438
932539,110567,200,-0.7472528,-1.532601,0.4141636,-0.7824176,-1.43199,0.7990232,185.643,0.437,-0.93108672,-0.81211234,0.41728936,0.364,0.0158242,-0.03399266,0.028327222,1.816923426,0.438
932755,110783,216,-0.7824176,-1.43199,0.7990232,-1.180952,-0.6466423,0.2275946,186.114,0.471,-0.93089136,-0.81465202,0.41006104,0.2836,0.00019536,-0.00253968,-0.00722832,1.365501077,0.437
932955,110983,200,-1.180952,-0.6466423,0.2275946,-1.18486,0.2764347,0.2295482,186.15,0.036,-0.94280834,-0.85274722,0.42529914,0.203,-0.01191698,-0.0380952,0.0152381,1.238144474,0.471
933155,111183,200,-1.18486,0.2764347,0.2295482,-0.7589744,-0.7384615,0.3799756,186.186,0.036,-0.98305254,-0.77909642,0.42432234,0.1228,-0.0402442,0.0736508,-0.0009768,1.125055102,0.036
933356,111384,201,-0.7589744,-0.7384615,0.3799756,-0.8068377,-1.723077,0.4903541,186.221,0.035,-0.94456664,-0.72986564,0.4407326,0.0366,0.0384859,0.04923078,0.01641026,1.964797334,0.036
933556,111584,200,-0.8068377,-1.723077,0.4903541,-0.9836386,-1.063736,0.7941392,186.257,0.036,-0.99184364,-0.76385832,0.386617832,0.0366,-0.047277,-0.03399268,-0.054114768,1.652191345,0.035
933778,111806,222,-0.9836386,-1.063736,0.7941392,-0.9885225,-0.4004884,0.3096459,186.297,0.04,-0.94202678,-0.72244196,0.467106232,0.0366,0.04981686,0.04141636,0.0804884,1.110607165,0.036
933979,112007,201,-0.9885225,-0.4004884,0.3096459,-1.421245,0.1064713,-0.04102564,186.333,0.036,-0.82930394,-0.77616596,0.420610512,0.0368,0.11272284,-0.053724,-0.04649572,1.425817867,0.04
934179,112207,200,-1.421245,0.1064713,-0.04102564,-0.5098901,-0.5313797,0.7824176,186.369,0.036,-0.83477402,-0.81133076,0.446984152,0.0368,-0.00547008,-0.0351648,0.02637364,1.074490391,0.036
934379,112407,200,-0.5098901,-0.5313797,0.7824176,-0.2432235,-1.991697,0.2578755,186.405,0.036,-0.90334552,-0.83457862,0.447960952,0.0366,-0.0685715,-0.02324786,0.0009768,2.022996388,0.036
934579,112607,200,-0.2432235,-1.991697,0.2578755,-1.010989,-1.23956,0.9260074,186.441,0.036,-0.92600732,-0.94710608,0.38642248,0.0366,-0.0226618,-0.11252746,-0.061538472,1.848268773,0.036
934792,112820,213,-1.010989,-1.23956,0.9260074,-1.33138,-0.5167277,0.3145299,186.48,0.039,-0.93186814,-0.97133076,0.40634922,0.0366,-0.00586082,-0.02422468,0.01992674,1.462364277,0.036
934992,113020,200,-1.33138,-0.5167277,0.3145299,-1.534554,-0.456166,-0.348718,186.516,0.036,-0.96840048,-0.96781436,0.60463972,0.0368,-0.03653234,0.0035164,0.1982905,1.638458923,0.039
935193,113221,201,-1.534554,-0.456166,-0.348718,-0.5391942,-0.6525031,0.8820513,186.552,0.036,-1.02564108,-0.99262516,0.47531126,0.0368,-0.0572406,-0.0248108,-0.12932846,1.222499561,0.036
935393,113421,200,-0.5391942,-0.6525031,0.8820513,-0.4258852,-1.974115,1.249328,186.589,0.037,-0.96507928,-0.98285714,0.57455426,0.0364,0.0605618,0.00976802,0.099243,2.374727077,0.036
935593,113621,200,-0.4258852,-1.974115,1.249328,-1.297192,-1.363614,0.2793651,186.625,0.036,-0.90334548,-1.02896216,0.648400424,0.0366,0.0617338,-0.04610502,0.073846164,1.902681026,0.037
935800,113828,207,-1.297192,-1.363614,0.2793651,-1.028571,-0.4678876,0.8107449,186.662,0.037,-0.94378502,-1.13308914,0.666959644,0.0366,-0.04043954,-0.10412698,0.01855922,1.390749582,0.036
936001,114029,201,-1.028571,-0.4678876,0.8107449,-1.225885,-0.6866911,0.02051282,186.699,0.037,-0.924249,-1.10827834,0.594285744,0.0364,0.01953602,0.0248108,-0.0726739,1.405261355,0.037
936201,114229,200,-1.225885,-0.6866911,0.02051282,-0.7413919,-1.173138,0.9748474,186.735,0.036,-0.8984614,-1.05670334,0.598388304,0.0366,0.0257876,0.051575,0.00410256,1.695948752,0.037
936402,114430,201,-0.7413919,-1.173138,0.9748474,-0.3282051,-1.850061,0.8859585,186.771,0.036,-0.8980708,-1.03716734,0.564004884,0.0366,0.0003906,0.019536,-0.03438342,2.077346085,0.036
936602,114630,200,-0.3282051,-1.850061,0.8859585,-1.168254,-1.105739,0.2998779,186.808,0.037,-0.8914286,-1.09616612,0.64468864,0.0366,0.0066422,-0.05899878,0.080683756,1.636277146,0.036
936809,114837,207,-1.168254,-1.105739,0.2998779,-1.026618,-0.3702076,0.6388278,186.845,0.037,-0.93343106,-1.09343112,0.64175824,0.0366,-0.04200246,0.002735,-0.0029304,1.264554919,0.037
937010,115038,201,-1.026618,-0.3702076,0.6388278,-1.192674,-0.981685,0.4239316,186.882,0.037,-0.94710628,-1.07037872,0.68004894,0.0366,-0.01367522,0.0230524,0.0382907,1.601841038,0.037
937210,115238,200,-1.192674,-0.981685,0.4239316,-0.9514042,-1.159463,0.9601954,186.918,0.036,-0.95531148,-1.02642262,0.68669118,0.0364,-0.0082052,0.0439561,0.00664224,1.780870463,0.037
937410,115438,200,-0.9514042,-1.159463,0.9601954,-0.3965812,-1.734799,1.077412,186.954,0.036,-0.92913318,-0.98363874,0.6571918,0.0366,0.0261783,0.04278388,-0.02949938,2.08029345,0.036
937610,115638,200,-0.3965812,-1.734799,1.077412,-1.20928,-0.8859585,0.3330891,186.99,0.036,-0.87228336,-0.978364,0.73299158,0.0364,0.05684982,0.00527474,0.07579978,1.535652607,0.036
937820,115848,210,-1.20928,-0.8859585,0.3330891,-0.8957265,-0.1562882,0.4913309,187.028,0.038,-0.87560448,-0.9932114,0.70056178,0.0364,-0.00332112,-0.0148474,-0.0324298,1.033517304,0.036
938020,116048,200,-0.8957265,-0.1562882,0.4913309,-0.9084249,-0.9553113,0.8029305,187.064,0.036,-0.90139202,-1.007082,0.74647138,0.0364,-0.02578754,-0.0138706,0.0459096,1.543552029,0.038
938221,116249,201,-0.9084249,-0.9553113,0.8029305,-0.9680098,-1.2337,0.7980464,187.1,0.036,-0.88556782,-0.9820759,0.73279618,0.0364,0.0158242,0.0250061,-0.0136752,1.759527414,0.036
938422,116450,201,-0.9680098,-1.2337,0.7980464,-0.5255189,-1.804152,1.30696,187.136,0.036,-0.97191712,-0.98910886,0.74471316,0.0366,-0.0863493,-0.00703296,0.01191698,2.288947137,0.036
938622,116650,200,-0.5255189,-1.804152,1.30696,-1.130159,-0.760928,0.2647131,187.172,0.036,-0.90100138,-0.9158488,0.68708188,0.0366,0.07091574,0.07326006,-0.05763128,1.387927884,0.036
938836,116864,214,-1.130159,-0.760928,0.2647131,-1.327473,-0.191453,0.5509158,187.211,0.039,-0.81308928,-1.010403,0.7638584,0.0366,0.0879121,-0.0945542,0.07677652,1.449947253,0.036
939036,117064,200,-1.327473,-0.191453,0.5509158,-0.5538462,-0.589011,0.5147741,187.247,0.036,-0.79941408,-0.9810988,0.68512818,0.0366,0.0136752,0.0293042,-0.07873022,0.958473758,0.039
939236,117264,200,-0.5538462,-0.589011,0.5147741,-0.5284493,-1.706471,1.181929,187.283,0.036,-0.81601968,-0.99575082,0.70427348,0.0366,-0.0166056,-0.01465202,0.0191453,2.142021965,0.036
939436,117464,200,-0.5284493,-1.706471,1.181929,-0.4571429,-1.657631,0.9133089,187.319,0.036,-0.81582428,-0.98559208,0.70720388,0.0364,0.0001954,0.01015874,0.0029304,1.947011379,0.036
939636,117664,200,-0.4571429,-1.657631,0.9133089,-1.213187,-0.8341881,0.3604396,187.355,0.036,-0.81094026,-1.031111,0.78984126,0.0364,0.00488402,-0.04551892,0.08263738,1.515786657,0.036
939847,117875,211,-1.213187,-0.8341881,0.3604396,-1.326496,-0.1406593,0.5655678,187.393,0.038,-0.79140426,-1.0270084,0.6853236,0.0366,0.019536,0.0041026,-0.10451766,1.448876673,0.036
940047,118075,200,-1.326496,-0.1406593,0.5655678,-0.5294261,-0.8166056,0.927961,187.429,0.036,-0.89416372,-0.9842246,0.64078148,0.0366,-0.10275946,0.0427838,-0.04454212,1.34471124,0.038
940248,118276,201,-0.5294261,-0.8166056,0.927961,-0.4307693,-1.685958,0.6593407,187.466,0.037,-0.85821732,-0.93147734,0.67067158,0.0366,0.0359464,0.05274726,0.0298901,1.860845702,0.036
940448,118476,200,-0.4307693,-1.685958,0.6593407,-0.9709402,-1.443712,0.6905983,187.502,0.036,-0.83731372,-0.8826373,0.60151406,0.0366,0.0209036,0.04884004,-0.06915752,1.871885473,0.037
940648,118676,200,-0.9709402,-1.443712,0.6905983,-1.033455,-0.5704518,0.5098901,187.538,0.036,-0.84083022,-0.89533572,0.56537242,0.0366,-0.0035165,-0.01269842,-0.03614164,1.285858626,0.036
940858,118886,210,-1.033455,-0.5704518,0.5098901,-1.221978,0.1035409,0.2197802,187.576,0.038,-0.77421238,-0.88302812,0.55228328,0.0366,0.06661784,0.0123076,-0.01308914,1.245894974,0.036
941058,119086,200,-1.221978,0.1035409,0.2197802,-0.5470086,-0.8800977,0.7472528,187.612,0.036,-0.75330884,-0.91096452,0.62261302,0.0366,0.02090354,-0.0279364,0.07032974,1.277566874,0.038
941258,119286,200,-0.5470086,-0.8800977,0.7472528,-0.0976801,-1.62442,0.593895,187.649,0.037,-0.76835164,-0.91623924,0.58862034,0.0366,-0.0150428,-0.00527472,-0.03399268,1.732337441,0.036
941458,119486,200,-0.0976801,-1.62442,0.593895,-0.8664225,-1.583394,1.042247,187.685,0.036,-0.78984124,-0.924835088,0.5034433,0.0366,-0.0214896,-0.008595848,-0.08517704,2.08425126,0.037
941658,119686,200,-0.8664225,-1.583394,1.042247,-1.108669,-0.5968254,0.3399267,187.721,0.036,-0.8111355,-0.902759388,0.50520154,0.0366,-0.02129426,0.0220757,0.00175824,1.304184677,0.036
941867,119895,209,-1.108669,-0.5968254,0.3399267,-1.329426,0.06056166,-0.206105,187.759,0.038,-0.8494261,-0.961953588,0.48859592,0.0364,-0.0382906,-0.0591942,-0.01660562,1.346670143,0.036
942067,120095,200,-1.329426,0.06056166,-0.206105,-0.6534799,-0.7697192,0.756044,187.795,0.036,-0.8832234,-0.927570188,0.39892552,0.0364,-0.0337973,0.0343834,-0.0896704,1.261390565,0.038
942267,120295,200,-0.6534799,-0.7697192,0.756044,-0.2891331,-1.920391,0.5108669,187.831,0.036,-0.8740416,-0.944566528,0.43409036,0.0366,0.0091818,-0.01699634,0.03516484,2.008104711,0.036
942467,120495,200,-0.2891331,-1.920391,0.5108669,-1.035409,-1.411477,0.593895,187.867,0.036,-0.8697438,-1.02935286,0.39873016,0.0366,0.0042978,-0.084786332,-0.0353602,1.848526546,0.036
942667,120695,200,-1.035409,-1.411477,0.593895,-1.06276,-0.6818071,0.5157509,187.904,0.037,-0.87619068,-1.07213674,0.39267398,0.0366,-0.00644688,-0.04278388,-0.00605618,1.363935017,0.036
942877,120905,210,-1.06276,-0.6818071,0.5157509,-1.307937,-0.36337,-0.382906,187.942,0.038,-0.91311376,-1.00180694,0.4225641,0.0366,-0.03692308,0.0703298,0.02989012,1.410444596,0.037
943077,121105,200,-1.307937,-0.36337,-0.382906,-0.6857143,-0.9836386,0.7257631,187.978,0.036,-0.96039096,-0.98383394,0.38310134,0.0366,-0.0472772,0.017973,-0.03946276,1.40159947,0.038
943277,121305,200,-0.6857143,-0.9836386,0.7257631,-0.4737485,-1.568742,0.6603175,188.014,0.036,-0.98813196,-0.9590232,0.36981686,0.0364,-0.027741,0.02481074,-0.01328448,1.766750776,0.036
943477,121505,200,-0.4737485,-1.568742,0.6603175,-1.271795,-1.321612,0.3965812,188.05,0.036,-0.95960936,-1.0967522,0.461440796,0.0364,0.0285226,-0.137729,0.091623936,1.876538688,0.036
943678,121706,201,-1.271795,-1.321612,0.3965812,-1.201465,-0.5577534,0.4493285,188.086,0.036,-0.97895002,-1.14188048,0.479609296,0.1394,-0.01934066,-0.04512828,0.0181685,1.39875055,0.036
943888,121916,210,-1.201465,-0.5577534,0.4493285,-1.165324,-1.052015,0.07521368,188.124,0.038,-1.00337004,-1.22588548,0.486056176,0.2424,-0.02442002,-0.084005,0.00644688,1.571741926,0.036
944088,122116,200,-1.165324,-1.052015,0.07521368,-0.7824176,-1.20928,0.8166056,188.675,0.551,-0.98969484,-1.14227126,0.468473756,0.3452,0.0136752,0.08361422,-0.01758242,1.655711365,0.038
944288,122316,200,-0.7824176,-1.20928,0.8166056,-0.5958486,-1.988767,0.6925519,189.226,0.551,-0.96976824,-1.036581386,0.475506716,0.4482,0.0199266,0.105689874,0.00703296,2.188574392,0.551
944488,122516,200,-0.5958486,-1.988767,0.6925519,-1.203419,-0.9035409,0.3086691,189.776,0.55,-0.93011004,-1.025055066,0.59272284,0.5574,0.0396582,0.01152632,0.117216124,1.536190112,0.551
944688,122716,200,-1.203419,-0.9035409,0.3086691,-1.101832,-0.02930403,0.4844933,190.327,0.551,-0.98910892,-1.078974466,0.57963372,0.568,-0.05899888,-0.0539194,-0.01308912,1.204004253,0.55
944900,122928,212,-1.101832,-0.02930403,0.4844933,-0.967033,-0.9943834,0.6612943,190.911,0.584,-0.97934092,-0.982466466,0.6298413,0.5786,0.009768,0.096508,0.05020758,1.53663962,0.551
945100,123128,200,-0.967033,-0.9943834,0.6612943,-1.077412,-1.478877,0.75116,191.515,0.604,-0.98461552,-0.952185646,0.6337485,0.5898,-0.0052746,0.03028082,0.0039072,1.977911814,0.584
945300,123328,200,-1.077412,-1.478877,0.75116,-0.5470086,-1.506227,0.9435898,192.119,0.604,-0.98012212,-0.90744816,0.66481076,0.6004,0.0044934,0.044737486,0.03106226,1.859650476,0.604
945501,123529,201,-0.5470086,-1.506227,0.9435898,-1.229792,-0.7521368,0.3282051,192.725,0.606,-0.92600734,-0.87228334,0.66344324,0.6116,0.05411478,0.03516482,-0.00136752,1.478450783,0.604
945701,123729,200,-1.229792,-0.7521368,0.3282051,-1.079365,0.1943834,0.6398046,193.329,0.604,-0.91330874,-0.90334554,0.60346764,0.6118,0.0126986,-0.0310622,-0.0599756,1.26971006,0.606
945913,123941,212,-1.079365,0.1943834,0.6398046,-0.6964591,-0.8185593,0.6544567,193.969,0.64,-0.88830262,-0.89748474,0.63882788,0.6118,0.02500612,0.0058608,0.03536024,1.258335479,0.604
946114,124142,201,-0.6964591,-0.8185593,0.6544567,-1.013919,-1.634188,0.451282,194.574,0.605,-0.88576302,-0.90197802,0.64488406,0.6108,0.0025396,-0.00449328,0.00605618,1.975413274,0.64
946315,124343,201,-1.013919,-1.634188,0.451282,-0.421978,-1.476923,1.120391,195.178,0.604,-0.90061042,-0.940268619,0.60757028,0.6104,-0.0148474,-0.038290599,-0.03731378,1.901221442,0.605
946515,124543,200,-0.421978,-1.476923,1.120391,-1.217094,-0.7746032,0.358486,195.779,0.601,-0.91389492,-0.888888879,0.56595854,0.611,-0.0132845,0.05137974,-0.04161174,1.486553105,0.604
946715,124743,200,-1.217094,-0.7746032,0.358486,-1.153602,0.002930403,0.4532357,196.381,0.602,-0.85626374,-0.900610479,0.65562888,0.6102,0.05763118,-0.0117216,0.08967034,1.239446958,0.601
946929,124957,214,-1.153602,0.002930403,0.4532357,-0.7628816,-0.5616606,0.446398,197.024,0.643,-0.88420026,-0.832234479,0.62358976,0.61,-0.02793652,0.068376,-0.03203912,1.047245024,0.602
947129,125157,200,-0.7628816,-0.5616606,0.446398,-0.7257631,-1.692796,0.8996337,197.625,0.601,-0.87384626,-0.791794919,0.60639806,0.6104,0.010354,0.04043956,-0.0171917,2.049788079,0.643
947330,125358,201,-0.7257631,-1.692796,0.8996337,-0.5616606,-1.135043,0.9601954,198.228,0.603,-0.89455446,-0.74588528,0.56439562,0.61,-0.0207082,0.045909639,-0.04200244,1.589264121,0.601
947531,125559,201,-0.5616606,-1.135043,0.9601954,-1.165324,-0.5724054,0.2725275,198.831,0.603,-0.8972895,-0.75643472,0.5782662,0.6118,-0.00273504,-0.01054944,0.01387058,1.326611927,0.603
947731,125759,200,-1.165324,-0.5724054,0.2725275,-1.257143,0.2324786,0.2432235,199.431,0.6,-0.83770466,-0.78730172,0.50676438,0.6128,0.05958484,-0.030867,-0.07150182,1.301388679,0.603
947948,125976,217,-1.257143,0.2324786,0.2432235,-0.7765568,-0.6144078,0.5157509,200.083,0.652,-0.93304034,-0.80996352,0.47218562,0.6134,-0.09533568,-0.0226618,-0.03457876,1.116483945,0.6
948148,126176,200,-0.7765568,-0.6144078,0.5157509,-0.4278389,-1.847131,0.5421246,200.689,0.606,-0.92854694,-0.78612958,0.48859588,0.614,0.0044934,0.02383394,0.01641026,1.972013726,0.652
948348,126376,200,-0.4278389,-1.847131,0.5421246,-1.038339,-1.248352,0.7873016,201.295,0.606,-0.95042734,-0.75389514,0.40166058,0.6152,-0.0218804,0.03223444,-0.0869353,1.804542713,0.606
948548,126576,200,-1.038339,-1.248352,0.7873016,-1.142857,-0.4532357,0.3545788,201.901,0.606,-0.90432234,-0.78886462,0.4432723,0.6116,0.046105,-0.03496948,0.04161172,1.279558849,0.606
948748,126776,200,-1.142857,-0.4532357,0.3545788,-1.366545,0.3936508,-0.191453,202.507,0.606,-0.9010012,-0.73787562,0.43565324,0.6118,0.00332114,0.050989,-0.00761906,1.434942661,0.606
948957,126985,209,-1.366545,0.3936508,-0.191453,-0.5460318,-0.7892552,0.7238095,203.141,0.634,-0.9197558,-0.74998782,0.397558,0.6122,-0.0187546,-0.0121122,-0.03809524,1.202071,0.606
949157,127185,200,-0.5460318,-0.7892552,0.7238095,-0.4112332,-1.592186,0.5040293,203.748,0.607,-0.9205372,-0.77870576,0.41142856,0.613,-0.0007814,-0.02871794,0.01387056,1.719946086,0.634
949357,127385,200,-0.4112332,-1.592186,0.5040293,-1.132112,-1.308913,0.5968254,204.356,0.608,-0.9029548,-0.8349695,0.42998778,0.6132,0.0175824,-0.05626374,0.01855922,1.830609565,0.607
949558,127586,201,-1.132112,-1.308913,0.5968254,-1.146764,-0.5968254,0.4239316,204.966,0.61,-0.9049084,-0.81894996,0.39579976,0.6122,-0.0019536,0.01601954,-0.03418802,1.360509548,0.608
949758,127786,200,-1.146764,-0.5968254,0.4239316,-1.278633,0.1123321,-0.0986569,205.573,0.607,-0.9058852,-0.80664216,0.40420026,0.6122,-0.0009768,0.0123078,0.0084005,1.28734379,0.61
949965,127993,207,-1.278633,0.1123321,-0.0986569,-0.5557998,-0.7091575,0.5528694,206.202,0.629,-0.8644689,-0.77323556,0.39462762,0.6126,0.0414163,0.0334066,-0.00957264,1.057110378,0.607
950165,128193,200,-0.5557998,-0.7091575,0.5528694,-0.4161172,-1.530647,0.5460318,206.809,0.607,-0.8654457,-0.7652258,0.42236878,0.6124,-0.0009768,0.00800976,0.02774116,1.677553126,0.629
950366,128394,201,-0.4161172,-1.530647,0.5460318,-0.9250305,-1.14188,0.5489622,207.419,0.61,-0.8484493,-0.83360186,0.3854457,0.613,0.0169964,-0.06837606,-0.03692308,1.568735433,0.607
950567,128595,201,-0.9250305,-1.14188,0.5489622,-1.151648,-0.5567766,0.5626374,208.028,0.609,-0.87111108,-0.8294993,0.37040294,0.611,-0.02266178,0.00410256,-0.01504276,1.397445578,0.61
950768,128796,201,-1.151648,-0.5567766,0.5626374,-1.193651,-0.2295482,-0.2832723,208.638,0.61,-0.87345542,-0.8369231,0.41260074,0.6108,-0.00234434,-0.0074238,0.0421978,1.248093859,0.609
950972,129000,204,-1.193651,-0.2295482,-0.2832723,-0.6691087,-0.6886447,0.4776556,209.257,0.619,-0.87755798,-0.8294995,0.37313798,0.6098,-0.00410256,0.0074236,-0.03946276,1.072423819,0.61
951172,129200,200,-0.6691087,-0.6886447,0.4776556,-0.4278389,-1.567766,0.7570208,209.863,0.606,-0.87247878,-0.83223454,0.3287912,0.6092,0.0050792,-0.00273504,-0.04434678,1.792767929,0.619
951372,129400,200,-0.4278389,-1.567766,0.7570208,-0.9455433,-1.104762,0.3516484,210.468,0.605,-0.83145308,-0.8918194,0.42393162,0.6082,0.0410257,-0.05958486,0.09514042,1.496064105,0.606
